[
    {
        "resourceType": "Bundle",
        "type": "collection",
        "entry": [
            {
                "resource": {
                    "resourceType": "Patient",
                    "id": "2aec9367-7",
                    "name": [
                        {
                            "family": "Graham",
                            "given": [
                                "Stephen",
                                "Graham"
                            ]
                        }
                    ],
                    "telecom": [
                        {
                            "system": "phone",
                            "value": "(933) 327-4402"
                        }
                    ],
                    "gender": "female",
                    "birthDate": "1997-12-09",
                    "address": [
                        {
                            "line": [
                                " 63298 Ernest Cove"
                            ],
                            "city": "North Brittanymouth",
                            "state": "United States"
                        }
                    ]
                }
            },
            {
                "resource": {
                    "resourceType": "Condition",
                    "id": "I63.9",
                    "clinicalStatus": {
                        "coding": [
                            {
                                "system": "http://terminology.hl7.org/CodeSystem/condition-clinical",
                                "code": "active"
                            }
                        ]
                    },
                    "code": {
                        "coding": [
                            {
                                "system": "http://hl7.org/fhir/sid/icd-10",
                                "code": "I63.9",
                                "display": "Cerebral infarction, unspecified"
                            }
                        ]
                    },
                    "subject": {
                        "reference": "Patient/2aec9367-7"
                    }
                }
            },
            {
                "resource": {
                    "resourceType": "Condition",
                    "id": "I70.645",
                    "clinicalStatus": {
                        "coding": [
                            {
                                "system": "http://terminology.hl7.org/CodeSystem/condition-clinical",
                                "code": "inactive"
                            }
                        ]
                    },
                    "code": {
                        "coding": [
                            {
                                "system": "http://hl7.org/fhir/sid/icd-10",
                                "code": "I70.645",
                                "display": "Athscl nonbiol bypass of the left leg w ulcer oth prt foot"
                            }
                        ]
                    },
                    "subject": {
                        "reference": "Patient/2aec9367-7"
                    }
                }
            },
            {
                "resource": {
                    "resourceType": "Condition",
                    "id": "I25.768",
                    "clinicalStatus": {
                        "coding": [
                            {
                                "system": "http://terminology.hl7.org/CodeSystem/condition-clinical",
                                "code": "inactive"
                            }
                        ]
                    },
                    "code": {
                        "coding": [
                            {
                                "system": "http://hl7.org/fhir/sid/icd-10",
                                "code": "I25.768",
                                "display": "Athscl bypass of cor art of txplt heart w oth ang pctrs"
                            }
                        ]
                    },
                    "subject": {
                        "reference": "Patient/2aec9367-7"
                    }
                }
            },
            null
        ]
    },
    {
        "resourceType": "Bundle",
        "type": "collection",
        "entry": [
            {
                "resource": {
                    "resourceType": "Patient",
                    "id": "d71d86ed-2",
                    "name": [
                        {
                            "family": "White",
                            "given": [
                                "William",
                                "White"
                            ]
                        }
                    ],
                    "telecom": [
                        {
                            "system": "phone",
                            "value": "(169) 326-2922"
                        }
                    ],
                    "gender": "female",
                    "birthDate": "1985-01-31",
                    "address": [
                        {
                            "line": [
                                " 52642 Carr Island"
                            ],
                            "city": "Markview",
                            "state": "United States"
                        }
                    ]
                }
            },
            {
                "resource": {
                    "resourceType": "Condition",
                    "id": "I10",
                    "clinicalStatus": {
                        "coding": [
                            {
                                "system": "http://terminology.hl7.org/CodeSystem/condition-clinical",
                                "code": "active"
                            }
                        ]
                    },
                    "code": {
                        "coding": [
                            {
                                "system": "http://hl7.org/fhir/sid/icd-10",
                                "code": "I10",
                                "display": "Essential (primary) hypertension"
                            }
                        ]
                    },
                    "subject": {
                        "reference": "Patient/d71d86ed-2"
                    }
                }
            },
            null
        ]
    },
    {
        "resourceType": "Bundle",
        "type": "collection",
        "entry": [
            {
                "resource": {
                    "resourceType": "Patient",
                    "id": "58aa41e5-a",
                    "name": [
                        {
                            "family": "Lopez",
                            "given": [
                                "Thomas",
                                "Lopez"
                            ]
                        }
                    ],
                    "telecom": [
                        {
                            "system": "phone",
                            "value": "(740) 343-4477"
                        }
                    ],
                    "gender": "male",
                    "birthDate": "1956-01-28",
                    "address": [
                        {
                            "line": [
                                " 87900 Berg Point"
                            ],
                            "city": "Davisport",
                            "state": "United States"
                        }
                    ]
                }
            },
            {
                "resource": {
                    "resourceType": "Condition",
                    "id": "K29.31",
                    "clinicalStatus": {
                        "coding": [
                            {
                                "system": "http://terminology.hl7.org/CodeSystem/condition-clinical",
                                "code": "active"
                            }
                        ]
                    },
                    "code": {
                        "coding": [
                            {
                                "system": "http://hl7.org/fhir/sid/icd-10",
                                "code": "K29.31",
                                "display": "Chronic superficial gastritis with bleeding"
                            }
                        ]
                    },
                    "subject": {
                        "reference": "Patient/58aa41e5-a"
                    }
                }
            },
            {
                "resource": {
                    "resourceType": "Condition",
                    "id": "K26.9",
                    "clinicalStatus": {
                        "coding": [
                            {
                                "system": "http://terminology.hl7.org/CodeSystem/condition-clinical",
                                "code": "inactive"
                            }
                        ]
                    },
                    "code": {
                        "coding": [
                            {
                                "system": "http://hl7.org/fhir/sid/icd-10",
                                "code": "K26.9",
                                "display": "Duodenal ulcer, unsp as acute or chronic, w/o hemor or perf"
                            }
                        ]
                    },
                    "subject": {
                        "reference": "Patient/58aa41e5-a"
                    }
                }
            },
            null
        ]
    },
    {
        "resourceType": "Bundle",
        "type": "collection",
        "entry": [
            {
                "resource": {
                    "resourceType": "Patient",
                    "id": "cdeaa876-e",
                    "name": [
                        {
                            "family": "Duke",
                            "given": [
                                "David",
                                "Duke"
                            ]
                        }
                    ],
                    "telecom": [
                        {
                            "system": "phone",
                            "value": "(197) 835-6915"
                        }
                    ],
                    "gender": "male",
                    "birthDate": "1984-11-07",
                    "address": [
                        {
                            "line": [
                                " 506 Garza Lake"
                            ],
                            "city": "Castilloborough",
                            "state": "United States"
                        }
                    ]
                }
            },
            {
                "resource": {
                    "resourceType": "Condition",
                    "id": "D12.6",
                    "clinicalStatus": {
                        "coding": [
                            {
                                "system": "http://terminology.hl7.org/CodeSystem/condition-clinical",
                                "code": "active"
                            }
                        ]
                    },
                    "code": {
                        "coding": [
                            {
                                "system": "http://hl7.org/fhir/sid/icd-10",
                                "code": "D12.6",
                                "display": "Benign neoplasm of colon, unspecified"
                            }
                        ]
                    },
                    "subject": {
                        "reference": "Patient/cdeaa876-e"
                    }
                }
            },
            null
        ]
    },
    {
        "resourceType": "Bundle",
        "type": "collection",
        "entry": [
            {
                "resource": {
                    "resourceType": "Patient",
                    "id": "80038f71-6",
                    "name": [
                        {
                            "family": "Byrd",
                            "given": [
                                "Connor",
                                "Byrd"
                            ]
                        }
                    ],
                    "telecom": [
                        {
                            "system": "phone",
                            "value": "(758) 724-4017"
                        }
                    ],
                    "gender": "female",
                    "birthDate": "2003-12-12",
                    "address": [
                        {
                            "line": [
                                " 72315 Craig Manor"
                            ],
                            "city": "Timothyport",
                            "state": "United States"
                        }
                    ]
                }
            },
            {
                "resource": {
                    "resourceType": "Condition",
                    "id": "S06.2X9S",
                    "clinicalStatus": {
                        "coding": [
                            {
                                "system": "http://terminology.hl7.org/CodeSystem/condition-clinical",
                                "code": "active"
                            }
                        ]
                    },
                    "code": {
                        "coding": [
                            {
                                "system": "http://hl7.org/fhir/sid/icd-10",
                                "code": "S06.2X9S",
                                "display": "Diffuse TBI w LOC of unsp duration, sequela"
                            }
                        ]
                    },
                    "subject": {
                        "reference": "Patient/80038f71-6"
                    }
                }
            },
            null
        ]
    },
    {
        "resourceType": "Bundle",
        "type": "collection",
        "entry": [
            {
                "resource": {
                    "resourceType": "Patient",
                    "id": "9f102df5-6",
                    "name": [
                        {
                            "family": "Sullivan",
                            "given": [
                                "David",
                                "Sullivan"
                            ]
                        }
                    ],
                    "telecom": [
                        {
                            "system": "phone",
                            "value": "(715) 822-0814"
                        }
                    ],
                    "gender": "female",
                    "birthDate": "1954-11-03",
                    "address": [
                        {
                            "line": [
                                " 0844 Harris Turnpike"
                            ],
                            "city": "Abigailside",
                            "state": "United States"
                        }
                    ]
                }
            },
            {
                "resource": {
                    "resourceType": "Condition",
                    "id": "E83.01",
                    "clinicalStatus": {
                        "coding": [
                            {
                                "system": "http://terminology.hl7.org/CodeSystem/condition-clinical",
                                "code": "active"
                            }
                        ]
                    },
                    "code": {
                        "coding": [
                            {
                                "system": "http://hl7.org/fhir/sid/icd-10",
                                "code": "E83.01",
                                "display": "Wilson's disease"
                            }
                        ]
                    },
                    "subject": {
                        "reference": "Patient/9f102df5-6"
                    }
                }
            },
            null
        ]
    },
    {
        "resourceType": "Bundle",
        "type": "collection",
        "entry": [
            {
                "resource": {
                    "resourceType": "Patient",
                    "id": "53e35937-f",
                    "name": [
                        {
                            "family": "Walker",
                            "given": [
                                "Johnny",
                                "Walker"
                            ]
                        }
                    ],
                    "telecom": [
                        {
                            "system": "phone",
                            "value": "(489) 915-0273"
                        }
                    ],
                    "gender": "male",
                    "birthDate": "1992-11-10",
                    "address": [
                        {
                            "line": [
                                " 9775 Brenda Valleys"
                            ],
                            "city": "East Angelafort",
                            "state": "United States"
                        }
                    ]
                }
            },
            {
                "resource": {
                    "resourceType": "Condition",
                    "id": "I61.4",
                    "clinicalStatus": {
                        "coding": [
                            {
                                "system": "http://terminology.hl7.org/CodeSystem/condition-clinical",
                                "code": "active"
                            }
                        ]
                    },
                    "code": {
                        "coding": [
                            {
                                "system": "http://hl7.org/fhir/sid/icd-10",
                                "code": "I61.4",
                                "display": "Nontraumatic intracerebral hemorrhage in cerebellum"
                            }
                        ]
                    },
                    "subject": {
                        "reference": "Patient/53e35937-f"
                    }
                }
            },
            null
        ]
    },
    {
        "resourceType": "Bundle",
        "type": "collection",
        "entry": [
            {
                "resource": {
                    "resourceType": "Patient",
                    "id": "b94b7320-e",
                    "name": [
                        {
                            "family": "Rodgers",
                            "given": [
                                "Nicholas",
                                "Rodgers"
                            ]
                        }
                    ],
                    "telecom": [
                        {
                            "system": "phone",
                            "value": "(922) 966-6520"
                        }
                    ],
                    "gender": "male",
                    "birthDate": "1971-04-06",
                    "address": [
                        {
                            "line": [
                                " 7020 Velasquez Island"
                            ],
                            "city": "New Katherinefurt",
                            "state": "United States"
                        }
                    ]
                }
            },
            {
                "resource": {
                    "resourceType": "Condition",
                    "id": "H10.31",
                    "clinicalStatus": {
                        "coding": [
                            {
                                "system": "http://terminology.hl7.org/CodeSystem/condition-clinical",
                                "code": "active"
                            }
                        ]
                    },
                    "code": {
                        "coding": [
                            {
                                "system": "http://hl7.org/fhir/sid/icd-10",
                                "code": "H10.31",
                                "display": "Unspecified acute conjunctivitis, right eye"
                            }
                        ]
                    },
                    "subject": {
                        "reference": "Patient/b94b7320-e"
                    }
                }
            },
            null
        ]
    },
    {
        "resourceType": "Bundle",
        "type": "collection",
        "entry": [
            {
                "resource": {
                    "resourceType": "Patient",
                    "id": "165f8e5c-2",
                    "name": [
                        {
                            "family": "Daugherty",
                            "given": [
                                "Jeremy",
                                "Daugherty"
                            ]
                        }
                    ],
                    "telecom": [
                        {
                            "system": "phone",
                            "value": "(493) 437-2191"
                        }
                    ],
                    "gender": "male",
                    "birthDate": "1964-02-27",
                    "address": [
                        {
                            "line": [
                                " 794 David Springs"
                            ],
                            "city": "Robertsshire",
                            "state": "United States"
                        }
                    ]
                }
            },
            {
                "resource": {
                    "resourceType": "Condition",
                    "id": "D24.9",
                    "clinicalStatus": {
                        "coding": [
                            {
                                "system": "http://terminology.hl7.org/CodeSystem/condition-clinical",
                                "code": "active"
                            }
                        ]
                    },
                    "code": {
                        "coding": [
                            {
                                "system": "http://hl7.org/fhir/sid/icd-10",
                                "code": "D24.9",
                                "display": "Benign neoplasm of unspecified breast"
                            }
                        ]
                    },
                    "subject": {
                        "reference": "Patient/165f8e5c-2"
                    }
                }
            },
            null
        ]
    },
    {
        "resourceType": "Bundle",
        "type": "collection",
        "entry": [
            {
                "resource": {
                    "resourceType": "Patient",
                    "id": "1a49492b-7",
                    "name": [
                        {
                            "family": "Johnson",
                            "given": [
                                "Jacob",
                                "Johnson"
                            ]
                        }
                    ],
                    "telecom": [
                        {
                            "system": "phone",
                            "value": "(156) 083-2232"
                        }
                    ],
                    "gender": "male",
                    "birthDate": "2003-12-19",
                    "address": [
                        {
                            "line": [
                                " 72348 Robert Manors"
                            ],
                            "city": "Lake Brandonport",
                            "state": "United States"
                        }
                    ]
                }
            },
            {
                "resource": {
                    "resourceType": "Condition",
                    "id": "I10",
                    "clinicalStatus": {
                        "coding": [
                            {
                                "system": "http://terminology.hl7.org/CodeSystem/condition-clinical",
                                "code": "active"
                            }
                        ]
                    },
                    "code": {
                        "coding": [
                            {
                                "system": "http://hl7.org/fhir/sid/icd-10",
                                "code": "I10",
                                "display": "Essential (primary) hypertension"
                            }
                        ]
                    },
                    "subject": {
                        "reference": "Patient/1a49492b-7"
                    }
                }
            },
            {
                "resource": {
                    "resourceType": "Condition",
                    "id": "I63.019",
                    "clinicalStatus": {
                        "coding": [
                            {
                                "system": "http://terminology.hl7.org/CodeSystem/condition-clinical",
                                "code": "inactive"
                            }
                        ]
                    },
                    "code": {
                        "coding": [
                            {
                                "system": "http://hl7.org/fhir/sid/icd-10",
                                "code": "I63.019",
                                "display": "Cerebral infarction due to thombos unsp vertebral artery"
                            }
                        ]
                    },
                    "subject": {
                        "reference": "Patient/1a49492b-7"
                    }
                }
            },
            {
                "resource": {
                    "resourceType": "Condition",
                    "id": "I69.864",
                    "clinicalStatus": {
                        "coding": [
                            {
                                "system": "http://terminology.hl7.org/CodeSystem/condition-clinical",
                                "code": "inactive"
                            }
                        ]
                    },
                    "code": {
                        "coding": [
                            {
                                "system": "http://hl7.org/fhir/sid/icd-10",
                                "code": "I69.864",
                                "display": "Oth parlyt synd fol oth cerebvasc dis aff left nondom side"
                            }
                        ]
                    },
                    "subject": {
                        "reference": "Patient/1a49492b-7"
                    }
                }
            },
            null
        ]
    },
    {
        "resourceType": "Bundle",
        "type": "collection",
        "entry": [
            {
                "resource": {
                    "resourceType": "Patient",
                    "id": "91d1dde7-8",
                    "name": [
                        {
                            "family": "Hester",
                            "given": [
                                "Caleb",
                                "Hester"
                            ]
                        }
                    ],
                    "telecom": [
                        {
                            "system": "phone",
                            "value": "(588) 635-3321"
                        }
                    ],
                    "gender": "female",
                    "birthDate": "1948-08-27",
                    "address": [
                        {
                            "line": [
                                " 618 Torres River"
                            ],
                            "city": "Englishborough",
                            "state": "United States"
                        }
                    ]
                }
            },
            {
                "resource": {
                    "resourceType": "Condition",
                    "id": "J40",
                    "clinicalStatus": {
                        "coding": [
                            {
                                "system": "http://terminology.hl7.org/CodeSystem/condition-clinical",
                                "code": "active"
                            }
                        ]
                    },
                    "code": {
                        "coding": [
                            {
                                "system": "http://hl7.org/fhir/sid/icd-10",
                                "code": "J40",
                                "display": "Bronchitis, not specified as acute or chronic"
                            }
                        ]
                    },
                    "subject": {
                        "reference": "Patient/91d1dde7-8"
                    }
                }
            },
            null
        ]
    },
    {
        "resourceType": "Bundle",
        "type": "collection",
        "entry": [
            {
                "resource": {
                    "resourceType": "Patient",
                    "id": "087fbc1d-3",
                    "name": [
                        {
                            "family": "Garcia",
                            "given": [
                                "Hunter",
                                "Garcia"
                            ]
                        }
                    ],
                    "telecom": [
                        {
                            "system": "phone",
                            "value": "(001) 253-3680"
                        }
                    ],
                    "gender": "male",
                    "birthDate": "2005-01-24",
                    "address": [
                        {
                            "line": [
                                " 0183 Michael Light"
                            ],
                            "city": "Lake Brian",
                            "state": "United States"
                        }
                    ]
                }
            },
            {
                "resource": {
                    "resourceType": "Condition",
                    "id": "J44.9",
                    "clinicalStatus": {
                        "coding": [
                            {
                                "system": "http://terminology.hl7.org/CodeSystem/condition-clinical",
                                "code": "active"
                            }
                        ]
                    },
                    "code": {
                        "coding": [
                            {
                                "system": "http://hl7.org/fhir/sid/icd-10",
                                "code": "J44.9",
                                "display": "Chronic obstructive pulmonary disease, unspecified"
                            }
                        ]
                    },
                    "subject": {
                        "reference": "Patient/087fbc1d-3"
                    }
                }
            },
            null
        ]
    },
    {
        "resourceType": "Bundle",
        "type": "collection",
        "entry": [
            {
                "resource": {
                    "resourceType": "Patient",
                    "id": "8108f3e5-8",
                    "name": [
                        {
                            "family": "Smith",
                            "given": [
                                "Nathan",
                                "Smith"
                            ]
                        }
                    ],
                    "telecom": [
                        {
                            "system": "phone",
                            "value": "(173) 199-6714"
                        }
                    ],
                    "gender": "female",
                    "birthDate": "1964-04-13",
                    "address": [
                        {
                            "line": [
                                " 64377 Hinton Shores"
                            ],
                            "city": "North Brenda",
                            "state": "United States"
                        }
                    ]
                }
            },
            {
                "resource": {
                    "resourceType": "Condition",
                    "id": "C18.9",
                    "clinicalStatus": {
                        "coding": [
                            {
                                "system": "http://terminology.hl7.org/CodeSystem/condition-clinical",
                                "code": "active"
                            }
                        ]
                    },
                    "code": {
                        "coding": [
                            {
                                "system": "http://hl7.org/fhir/sid/icd-10",
                                "code": "C18.9",
                                "display": "Malignant neoplasm of colon, unspecified"
                            }
                        ]
                    },
                    "subject": {
                        "reference": "Patient/8108f3e5-8"
                    }
                }
            },
            null
        ]
    },
    {
        "resourceType": "Bundle",
        "type": "collection",
        "entry": [
            {
                "resource": {
                    "resourceType": "Patient",
                    "id": "fc940585-0",
                    "name": [
                        {
                            "family": "Boyd",
                            "given": [
                                "Scott",
                                "Boyd"
                            ]
                        }
                    ],
                    "telecom": [
                        {
                            "system": "phone",
                            "value": "(133) 764-0261"
                        }
                    ],
                    "gender": "male",
                    "birthDate": "1959-08-21",
                    "address": [
                        {
                            "line": [
                                " 8444 Samantha Field"
                            ],
                            "city": "Perryshire",
                            "state": "United States"
                        }
                    ]
                }
            },
            {
                "resource": {
                    "resourceType": "Condition",
                    "id": "I61.4",
                    "clinicalStatus": {
                        "coding": [
                            {
                                "system": "http://terminology.hl7.org/CodeSystem/condition-clinical",
                                "code": "active"
                            }
                        ]
                    },
                    "code": {
                        "coding": [
                            {
                                "system": "http://hl7.org/fhir/sid/icd-10",
                                "code": "I61.4",
                                "display": "Nontraumatic intracerebral hemorrhage in cerebellum"
                            }
                        ]
                    },
                    "subject": {
                        "reference": "Patient/fc940585-0"
                    }
                }
            },
            null
        ]
    },
    {
        "resourceType": "Bundle",
        "type": "collection",
        "entry": [
            {
                "resource": {
                    "resourceType": "Patient",
                    "id": "7cd2dbd1-c",
                    "name": [
                        {
                            "family": "Rodriguez",
                            "given": [
                                "David",
                                "Rodriguez"
                            ]
                        }
                    ],
                    "telecom": [
                        {
                            "system": "phone",
                            "value": "(624) 799-0918"
                        }
                    ],
                    "gender": "female",
                    "birthDate": "1978-09-09",
                    "address": [
                        {
                            "line": [
                                " 7046 Tracy Square"
                            ],
                            "city": "Millerville",
                            "state": "United States"
                        }
                    ]
                }
            },
            {
                "resource": {
                    "resourceType": "Condition",
                    "id": "E11.9",
                    "clinicalStatus": {
                        "coding": [
                            {
                                "system": "http://terminology.hl7.org/CodeSystem/condition-clinical",
                                "code": "active"
                            }
                        ]
                    },
                    "code": {
                        "coding": [
                            {
                                "system": "http://hl7.org/fhir/sid/icd-10",
                                "code": "E11.9",
                                "display": "Type 2 diabetes mellitus without complications"
                            }
                        ]
                    },
                    "subject": {
                        "reference": "Patient/7cd2dbd1-c"
                    }
                }
            },
            {
                "resource": {
                    "resourceType": "Condition",
                    "id": "E02",
                    "clinicalStatus": {
                        "coding": [
                            {
                                "system": "http://terminology.hl7.org/CodeSystem/condition-clinical",
                                "code": "inactive"
                            }
                        ]
                    },
                    "code": {
                        "coding": [
                            {
                                "system": "http://hl7.org/fhir/sid/icd-10",
                                "code": "E02",
                                "display": "Subclinical iodine-deficiency hypothyroidism"
                            }
                        ]
                    },
                    "subject": {
                        "reference": "Patient/7cd2dbd1-c"
                    }
                }
            },
            {
                "resource": {
                    "resourceType": "Condition",
                    "id": "E79.89",
                    "clinicalStatus": {
                        "coding": [
                            {
                                "system": "http://terminology.hl7.org/CodeSystem/condition-clinical",
                                "code": "inactive"
                            }
                        ]
                    },
                    "code": {
                        "coding": [
                            {
                                "system": "http://hl7.org/fhir/sid/icd-10",
                                "code": "E79.89",
                                "display": "Oth disrd of purine and pyrimidine metabolism"
                            }
                        ]
                    },
                    "subject": {
                        "reference": "Patient/7cd2dbd1-c"
                    }
                }
            },
            null
        ]
    },
    {
        "resourceType": "Bundle",
        "type": "collection",
        "entry": [
            {
                "resource": {
                    "resourceType": "Patient",
                    "id": "e2c9adbd-6",
                    "name": [
                        {
                            "family": "Alvarado",
                            "given": [
                                "Marcus",
                                "Alvarado"
                            ]
                        }
                    ],
                    "telecom": [
                        {
                            "system": "phone",
                            "value": "(425) 811-7385"
                        }
                    ],
                    "gender": "female",
                    "birthDate": "1944-03-14",
                    "address": [
                        {
                            "line": [
                                " 048 Nicholas Turnpike"
                            ],
                            "city": "New Sierra",
                            "state": "United States"
                        }
                    ]
                }
            },
            {
                "resource": {
                    "resourceType": "Condition",
                    "id": "C34.91",
                    "clinicalStatus": {
                        "coding": [
                            {
                                "system": "http://terminology.hl7.org/CodeSystem/condition-clinical",
                                "code": "active"
                            }
                        ]
                    },
                    "code": {
                        "coding": [
                            {
                                "system": "http://hl7.org/fhir/sid/icd-10",
                                "code": "C34.91",
                                "display": "Malignant neoplasm of unsp part of right bronchus or lung"
                            }
                        ]
                    },
                    "subject": {
                        "reference": "Patient/e2c9adbd-6"
                    }
                }
            },
            null
        ]
    },
    {
        "resourceType": "Bundle",
        "type": "collection",
        "entry": [
            {
                "resource": {
                    "resourceType": "Patient",
                    "id": "7f5cba7f-a",
                    "name": [
                        {
                            "family": "Robinson",
                            "given": [
                                "Ian",
                                "Robinson"
                            ]
                        }
                    ],
                    "telecom": [
                        {
                            "system": "phone",
                            "value": "(001) 892-4000"
                        }
                    ],
                    "gender": "male",
                    "birthDate": "1956-09-24",
                    "address": [
                        {
                            "line": [
                                " 521 Cheyenne Island"
                            ],
                            "city": "West Anthonyshire",
                            "state": "United States"
                        }
                    ]
                }
            },
            {
                "resource": {
                    "resourceType": "Condition",
                    "id": "I25.110",
                    "clinicalStatus": {
                        "coding": [
                            {
                                "system": "http://terminology.hl7.org/CodeSystem/condition-clinical",
                                "code": "active"
                            }
                        ]
                    },
                    "code": {
                        "coding": [
                            {
                                "system": "http://hl7.org/fhir/sid/icd-10",
                                "code": "I25.110",
                                "display": "Athscl heart disease of native cor art w unstable ang pctrs"
                            }
                        ]
                    },
                    "subject": {
                        "reference": "Patient/7f5cba7f-a"
                    }
                }
            },
            null
        ]
    },
    {
        "resourceType": "Bundle",
        "type": "collection",
        "entry": [
            {
                "resource": {
                    "resourceType": "Patient",
                    "id": "0bf4a68d-4",
                    "name": [
                        {
                            "family": "Wright",
                            "given": [
                                "Richard",
                                "Wright"
                            ]
                        }
                    ],
                    "telecom": [
                        {
                            "system": "phone",
                            "value": "(001) 214-3506"
                        }
                    ],
                    "gender": "female",
                    "birthDate": "1949-03-24",
                    "address": [
                        {
                            "line": [
                                " 2240 Thomas Centers"
                            ],
                            "city": "Port Brianaview",
                            "state": "United States"
                        }
                    ]
                }
            },
            {
                "resource": {
                    "resourceType": "Condition",
                    "id": "C34.2",
                    "clinicalStatus": {
                        "coding": [
                            {
                                "system": "http://terminology.hl7.org/CodeSystem/condition-clinical",
                                "code": "active"
                            }
                        ]
                    },
                    "code": {
                        "coding": [
                            {
                                "system": "http://hl7.org/fhir/sid/icd-10",
                                "code": "C34.2",
                                "display": "Malignant neoplasm of middle lobe, bronchus or lung"
                            }
                        ]
                    },
                    "subject": {
                        "reference": "Patient/0bf4a68d-4"
                    }
                }
            },
            null
        ]
    },
    {
        "resourceType": "Bundle",
        "type": "collection",
        "entry": [
            {
                "resource": {
                    "resourceType": "Patient",
                    "id": "a040dfe1-a",
                    "name": [
                        {
                            "family": "Yu",
                            "given": [
                                "Jeffrey",
                                "Yu"
                            ]
                        }
                    ],
                    "telecom": [
                        {
                            "system": "phone",
                            "value": "(590) 288-4098"
                        }
                    ],
                    "gender": "female",
                    "birthDate": "1985-12-08",
                    "address": [
                        {
                            "line": [
                                " 5487 Amber Drives"
                            ],
                            "city": "Port Larry",
                            "state": "United States"
                        }
                    ]
                }
            },
            {
                "resource": {
                    "resourceType": "Condition",
                    "id": "E11.9",
                    "clinicalStatus": {
                        "coding": [
                            {
                                "system": "http://terminology.hl7.org/CodeSystem/condition-clinical",
                                "code": "active"
                            }
                        ]
                    },
                    "code": {
                        "coding": [
                            {
                                "system": "http://hl7.org/fhir/sid/icd-10",
                                "code": "E11.9",
                                "display": "Type 2 diabetes mellitus without complications"
                            }
                        ]
                    },
                    "subject": {
                        "reference": "Patient/a040dfe1-a"
                    }
                }
            },
            {
                "resource": {
                    "resourceType": "Condition",
                    "id": "E02",
                    "clinicalStatus": {
                        "coding": [
                            {
                                "system": "http://terminology.hl7.org/CodeSystem/condition-clinical",
                                "code": "inactive"
                            }
                        ]
                    },
                    "code": {
                        "coding": [
                            {
                                "system": "http://hl7.org/fhir/sid/icd-10",
                                "code": "E02",
                                "display": "Subclinical iodine-deficiency hypothyroidism"
                            }
                        ]
                    },
                    "subject": {
                        "reference": "Patient/a040dfe1-a"
                    }
                }
            },
            {
                "resource": {
                    "resourceType": "Condition",
                    "id": "E79.89",
                    "clinicalStatus": {
                        "coding": [
                            {
                                "system": "http://terminology.hl7.org/CodeSystem/condition-clinical",
                                "code": "inactive"
                            }
                        ]
                    },
                    "code": {
                        "coding": [
                            {
                                "system": "http://hl7.org/fhir/sid/icd-10",
                                "code": "E79.89",
                                "display": "Oth disrd of purine and pyrimidine metabolism"
                            }
                        ]
                    },
                    "subject": {
                        "reference": "Patient/a040dfe1-a"
                    }
                }
            },
            null
        ]
    },
    {
        "resourceType": "Bundle",
        "type": "collection",
        "entry": [
            {
                "resource": {
                    "resourceType": "Patient",
                    "id": "a88d3e29-4",
                    "name": [
                        {
                            "family": "Smith",
                            "given": [
                                "Peter",
                                "Smith"
                            ]
                        }
                    ],
                    "telecom": [
                        {
                            "system": "phone",
                            "value": "(816) 511-8046"
                        }
                    ],
                    "gender": "female",
                    "birthDate": "1949-01-09",
                    "address": [
                        {
                            "line": [
                                " 6394 William Causeway"
                            ],
                            "city": "Hurstshire",
                            "state": "United States"
                        }
                    ]
                }
            },
            {
                "resource": {
                    "resourceType": "Condition",
                    "id": "R16.1",
                    "clinicalStatus": {
                        "coding": [
                            {
                                "system": "http://terminology.hl7.org/CodeSystem/condition-clinical",
                                "code": "active"
                            }
                        ]
                    },
                    "code": {
                        "coding": [
                            {
                                "system": "http://hl7.org/fhir/sid/icd-10",
                                "code": "R16.1",
                                "display": "Splenomegaly, not elsewhere classified"
                            }
                        ]
                    },
                    "subject": {
                        "reference": "Patient/a88d3e29-4"
                    }
                }
            },
            null
        ]
    },
    {
        "resourceType": "Bundle",
        "type": "collection",
        "entry": [
            {
                "resource": {
                    "resourceType": "Patient",
                    "id": "f4d6929b-2",
                    "name": [
                        {
                            "family": "Mccall",
                            "given": [
                                "Jason",
                                "Mccall"
                            ]
                        }
                    ],
                    "telecom": [
                        {
                            "system": "phone",
                            "value": "(723) 392-5152"
                        }
                    ],
                    "gender": "male",
                    "birthDate": "1971-09-06",
                    "address": [
                        {
                            "line": [
                                " 92352 Brown Light"
                            ],
                            "city": "Theresaside",
                            "state": "United States"
                        }
                    ]
                }
            },
            {
                "resource": {
                    "resourceType": "Condition",
                    "id": "I48.20",
                    "clinicalStatus": {
                        "coding": [
                            {
                                "system": "http://terminology.hl7.org/CodeSystem/condition-clinical",
                                "code": "active"
                            }
                        ]
                    },
                    "code": {
                        "coding": [
                            {
                                "system": "http://hl7.org/fhir/sid/icd-10",
                                "code": "I48.20",
                                "display": "Chronic atrial fibrillation, unspecified"
                            }
                        ]
                    },
                    "subject": {
                        "reference": "Patient/f4d6929b-2"
                    }
                }
            },
            null
        ]
    },
    {
        "resourceType": "Bundle",
        "type": "collection",
        "entry": [
            {
                "resource": {
                    "resourceType": "Patient",
                    "id": "3dd6951f-d",
                    "name": [
                        {
                            "family": "Dennis",
                            "given": [
                                "William",
                                "Dennis"
                            ]
                        }
                    ],
                    "telecom": [
                        {
                            "system": "phone",
                            "value": "(285) 859-1710"
                        }
                    ],
                    "gender": "female",
                    "birthDate": "1957-02-03",
                    "address": [
                        {
                            "line": [
                                " 3762 Michael Shore"
                            ],
                            "city": "West Tracy",
                            "state": "United States"
                        }
                    ]
                }
            },
            {
                "resource": {
                    "resourceType": "Condition",
                    "id": "K92.2",
                    "clinicalStatus": {
                        "coding": [
                            {
                                "system": "http://terminology.hl7.org/CodeSystem/condition-clinical",
                                "code": "active"
                            }
                        ]
                    },
                    "code": {
                        "coding": [
                            {
                                "system": "http://hl7.org/fhir/sid/icd-10",
                                "code": "K92.2",
                                "display": "Gastrointestinal hemorrhage, unspecified"
                            }
                        ]
                    },
                    "subject": {
                        "reference": "Patient/3dd6951f-d"
                    }
                }
            },
            null
        ]
    },
    {
        "resourceType": "Bundle",
        "type": "collection",
        "entry": [
            {
                "resource": {
                    "resourceType": "Patient",
                    "id": "8942cba9-d",
                    "name": [
                        {
                            "family": "Ayala",
                            "given": [
                                "Austin",
                                "Ayala"
                            ]
                        }
                    ],
                    "telecom": [
                        {
                            "system": "phone",
                            "value": "(351) 305-3250"
                        }
                    ],
                    "gender": "male",
                    "birthDate": "2015-09-22",
                    "address": [
                        {
                            "line": [
                                " 9655 Lopez Mission"
                            ],
                            "city": "South Jean",
                            "state": "United States"
                        }
                    ]
                }
            },
            {
                "resource": {
                    "resourceType": "Condition",
                    "id": "C22.0",
                    "clinicalStatus": {
                        "coding": [
                            {
                                "system": "http://terminology.hl7.org/CodeSystem/condition-clinical",
                                "code": "active"
                            }
                        ]
                    },
                    "code": {
                        "coding": [
                            {
                                "system": "http://hl7.org/fhir/sid/icd-10",
                                "code": "C22.0",
                                "display": "Liver cell carcinoma"
                            }
                        ]
                    },
                    "subject": {
                        "reference": "Patient/8942cba9-d"
                    }
                }
            },
            null
        ]
    },
    {
        "resourceType": "Bundle",
        "type": "collection",
        "entry": [
            {
                "resource": {
                    "resourceType": "Patient",
                    "id": "f1ac0694-1",
                    "name": [
                        {
                            "family": "Davis",
                            "given": [
                                "Marcus",
                                "Davis"
                            ]
                        }
                    ],
                    "telecom": [
                        {
                            "system": "phone",
                            "value": "(428) 245-1841"
                        }
                    ],
                    "gender": "female",
                    "birthDate": "1974-04-21",
                    "address": [
                        {
                            "line": [
                                " 380 Nicole Gardens"
                            ],
                            "city": "South Tyler",
                            "state": "United States"
                        }
                    ]
                }
            },
            {
                "resource": {
                    "resourceType": "Condition",
                    "id": "I49.3",
                    "clinicalStatus": {
                        "coding": [
                            {
                                "system": "http://terminology.hl7.org/CodeSystem/condition-clinical",
                                "code": "active"
                            }
                        ]
                    },
                    "code": {
                        "coding": [
                            {
                                "system": "http://hl7.org/fhir/sid/icd-10",
                                "code": "I49.3",
                                "display": "Ventricular premature depolarization"
                            }
                        ]
                    },
                    "subject": {
                        "reference": "Patient/f1ac0694-1"
                    }
                }
            },
            null
        ]
    },
    {
        "resourceType": "Bundle",
        "type": "collection",
        "entry": [
            {
                "resource": {
                    "resourceType": "Patient",
                    "id": "dbcc68c5-d",
                    "name": [
                        {
                            "family": "Cobb",
                            "given": [
                                "Anthony",
                                "Cobb"
                            ]
                        }
                    ],
                    "telecom": [
                        {
                            "system": "phone",
                            "value": "(301) 803-1866"
                        }
                    ],
                    "gender": "female",
                    "birthDate": "1954-09-23",
                    "address": [
                        {
                            "line": [
                                " 53842 Debra Parkway"
                            ],
                            "city": "Andersonchester",
                            "state": "United States"
                        }
                    ]
                }
            },
            {
                "resource": {
                    "resourceType": "Condition",
                    "id": "M25.649",
                    "clinicalStatus": {
                        "coding": [
                            {
                                "system": "http://terminology.hl7.org/CodeSystem/condition-clinical",
                                "code": "active"
                            }
                        ]
                    },
                    "code": {
                        "coding": [
                            {
                                "system": "http://hl7.org/fhir/sid/icd-10",
                                "code": "M25.649",
                                "display": "Stiffness of unspecified hand, not elsewhere classified"
                            }
                        ]
                    },
                    "subject": {
                        "reference": "Patient/dbcc68c5-d"
                    }
                }
            },
            null
        ]
    },
    {
        "resourceType": "Bundle",
        "type": "collection",
        "entry": [
            {
                "resource": {
                    "resourceType": "Patient",
                    "id": "4227f0cf-f",
                    "name": [
                        {
                            "family": "Davis",
                            "given": [
                                "Brent",
                                "Davis"
                            ]
                        }
                    ],
                    "telecom": [
                        {
                            "system": "phone",
                            "value": "(001) 856-2237"
                        }
                    ],
                    "gender": "female",
                    "birthDate": "1984-10-11",
                    "address": [
                        {
                            "line": [
                                " 843 Webster Underpass"
                            ],
                            "city": "Thomashaven",
                            "state": "United States"
                        }
                    ]
                }
            },
            {
                "resource": {
                    "resourceType": "Condition",
                    "id": "C37",
                    "clinicalStatus": {
                        "coding": [
                            {
                                "system": "http://terminology.hl7.org/CodeSystem/condition-clinical",
                                "code": "active"
                            }
                        ]
                    },
                    "code": {
                        "coding": [
                            {
                                "system": "http://hl7.org/fhir/sid/icd-10",
                                "code": "C37",
                                "display": "Malignant neoplasm of thymus"
                            }
                        ]
                    },
                    "subject": {
                        "reference": "Patient/4227f0cf-f"
                    }
                }
            },
            null
        ]
    },
    {
        "resourceType": "Bundle",
        "type": "collection",
        "entry": [
            {
                "resource": {
                    "resourceType": "Patient",
                    "id": "53d4a7f2-7",
                    "name": [
                        {
                            "family": "Walls",
                            "given": [
                                "Jason",
                                "Walls"
                            ]
                        }
                    ],
                    "telecom": [
                        {
                            "system": "phone",
                            "value": "(838) 266-7893"
                        }
                    ],
                    "gender": "female",
                    "birthDate": "1946-01-14",
                    "address": [
                        {
                            "line": [
                                " 8218 Ellis Ports"
                            ],
                            "city": "Hendersonport",
                            "state": "United States"
                        }
                    ]
                }
            },
            {
                "resource": {
                    "resourceType": "Condition",
                    "id": "C56.1",
                    "clinicalStatus": {
                        "coding": [
                            {
                                "system": "http://terminology.hl7.org/CodeSystem/condition-clinical",
                                "code": "active"
                            }
                        ]
                    },
                    "code": {
                        "coding": [
                            {
                                "system": "http://hl7.org/fhir/sid/icd-10",
                                "code": "C56.1",
                                "display": "Malignant neoplasm of right ovary"
                            }
                        ]
                    },
                    "subject": {
                        "reference": "Patient/53d4a7f2-7"
                    }
                }
            },
            null
        ]
    },
    {
        "resourceType": "Bundle",
        "type": "collection",
        "entry": [
            {
                "resource": {
                    "resourceType": "Patient",
                    "id": "e7d7f815-6",
                    "name": [
                        {
                            "family": "Compton",
                            "given": [
                                "William",
                                "Compton"
                            ]
                        }
                    ],
                    "telecom": [
                        {
                            "system": "phone",
                            "value": "(954) 508-8726"
                        }
                    ],
                    "gender": "male",
                    "birthDate": "1973-03-18",
                    "address": [
                        {
                            "line": [
                                " 402 Ryan Road"
                            ],
                            "city": "New Brian",
                            "state": "United States"
                        }
                    ]
                }
            },
            {
                "resource": {
                    "resourceType": "Condition",
                    "id": "G81.90",
                    "clinicalStatus": {
                        "coding": [
                            {
                                "system": "http://terminology.hl7.org/CodeSystem/condition-clinical",
                                "code": "active"
                            }
                        ]
                    },
                    "code": {
                        "coding": [
                            {
                                "system": "http://hl7.org/fhir/sid/icd-10",
                                "code": "G81.90",
                                "display": "Hemiplegia, unspecified affecting unspecified side"
                            }
                        ]
                    },
                    "subject": {
                        "reference": "Patient/e7d7f815-6"
                    }
                }
            },
            null
        ]
    },
    {
        "resourceType": "Bundle",
        "type": "collection",
        "entry": [
            {
                "resource": {
                    "resourceType": "Patient",
                    "id": "476f9e59-1",
                    "name": [
                        {
                            "family": "Brown",
                            "given": [
                                "Gary",
                                "Brown"
                            ]
                        }
                    ],
                    "telecom": [
                        {
                            "system": "phone",
                            "value": "(001) 344-6819"
                        }
                    ],
                    "gender": "male",
                    "birthDate": "1954-10-24",
                    "address": [
                        {
                            "line": [
                                " 70403 Williams Common"
                            ],
                            "city": "Mcdonaldburgh",
                            "state": "United States"
                        }
                    ]
                }
            },
            {
                "resource": {
                    "resourceType": "Condition",
                    "id": "O26.643",
                    "clinicalStatus": {
                        "coding": [
                            {
                                "system": "http://terminology.hl7.org/CodeSystem/condition-clinical",
                                "code": "active"
                            }
                        ]
                    },
                    "code": {
                        "coding": [
                            {
                                "system": "http://hl7.org/fhir/sid/icd-10",
                                "code": "O26.643",
                                "display": "Intrahepatic cholestasis of pregnancy, third trimester"
                            }
                        ]
                    },
                    "subject": {
                        "reference": "Patient/476f9e59-1"
                    }
                }
            },
            null
        ]
    },
    {
        "resourceType": "Bundle",
        "type": "collection",
        "entry": [
            {
                "resource": {
                    "resourceType": "Patient",
                    "id": "674db652-3",
                    "name": [
                        {
                            "family": "Patel",
                            "given": [
                                "Brian",
                                "Patel"
                            ]
                        }
                    ],
                    "telecom": [
                        {
                            "system": "phone",
                            "value": "(001) 829-7126"
                        }
                    ],
                    "gender": "female",
                    "birthDate": "1952-01-01",
                    "address": [
                        {
                            "line": [
                                " 3745 Turner Cliff"
                            ],
                            "city": "North Nicholashaven",
                            "state": "United States"
                        }
                    ]
                }
            },
            {
                "resource": {
                    "resourceType": "Condition",
                    "id": "E04.1",
                    "clinicalStatus": {
                        "coding": [
                            {
                                "system": "http://terminology.hl7.org/CodeSystem/condition-clinical",
                                "code": "active"
                            }
                        ]
                    },
                    "code": {
                        "coding": [
                            {
                                "system": "http://hl7.org/fhir/sid/icd-10",
                                "code": "E04.1",
                                "display": "Nontoxic single thyroid nodule"
                            }
                        ]
                    },
                    "subject": {
                        "reference": "Patient/674db652-3"
                    }
                }
            },
            null
        ]
    },
    {
        "resourceType": "Bundle",
        "type": "collection",
        "entry": [
            {
                "resource": {
                    "resourceType": "Patient",
                    "id": "85f170c2-7",
                    "name": [
                        {
                            "family": "Young",
                            "given": [
                                "Steven",
                                "Young"
                            ]
                        }
                    ],
                    "telecom": [
                        {
                            "system": "phone",
                            "value": "(983) 651-2873"
                        }
                    ],
                    "gender": "female",
                    "birthDate": "1944-10-03",
                    "address": [
                        {
                            "line": [
                                " 309 Anita Viaduct"
                            ],
                            "city": "Anthonyhaven",
                            "state": "United States"
                        }
                    ]
                }
            },
            {
                "resource": {
                    "resourceType": "Condition",
                    "id": "E11.9",
                    "clinicalStatus": {
                        "coding": [
                            {
                                "system": "http://terminology.hl7.org/CodeSystem/condition-clinical",
                                "code": "active"
                            }
                        ]
                    },
                    "code": {
                        "coding": [
                            {
                                "system": "http://hl7.org/fhir/sid/icd-10",
                                "code": "E11.9",
                                "display": "Type 2 diabetes mellitus without complications"
                            }
                        ]
                    },
                    "subject": {
                        "reference": "Patient/85f170c2-7"
                    }
                }
            },
            null
        ]
    },
    {
        "resourceType": "Bundle",
        "type": "collection",
        "entry": [
            {
                "resource": {
                    "resourceType": "Patient",
                    "id": "a60af26b-d",
                    "name": [
                        {
                            "family": "Stewart",
                            "given": [
                                "Anthony",
                                "Stewart"
                            ]
                        }
                    ],
                    "telecom": [
                        {
                            "system": "phone",
                            "value": "(253) 688-8838"
                        }
                    ],
                    "gender": "female",
                    "birthDate": "1965-01-12",
                    "address": [
                        {
                            "line": [
                                " 454 Richards Island"
                            ],
                            "city": "Hannahborough",
                            "state": "United States"
                        }
                    ]
                }
            },
            {
                "resource": {
                    "resourceType": "Condition",
                    "id": "C56.3",
                    "clinicalStatus": {
                        "coding": [
                            {
                                "system": "http://terminology.hl7.org/CodeSystem/condition-clinical",
                                "code": "active"
                            }
                        ]
                    },
                    "code": {
                        "coding": [
                            {
                                "system": "http://hl7.org/fhir/sid/icd-10",
                                "code": "C56.3",
                                "display": "Malignant neoplasm of bilateral ovaries"
                            }
                        ]
                    },
                    "subject": {
                        "reference": "Patient/a60af26b-d"
                    }
                }
            },
            null
        ]
    },
    {
        "resourceType": "Bundle",
        "type": "collection",
        "entry": [
            {
                "resource": {
                    "resourceType": "Patient",
                    "id": "2d5f70e4-d",
                    "name": [
                        {
                            "family": "Evans",
                            "given": [
                                "Robert",
                                "Evans"
                            ]
                        }
                    ],
                    "telecom": [
                        {
                            "system": "phone",
                            "value": "(289) 433-3354"
                        }
                    ],
                    "gender": "male",
                    "birthDate": "1987-08-16",
                    "address": [
                        {
                            "line": [
                                " 781 Alexandria Haven"
                            ],
                            "city": "New Jessica",
                            "state": "United States"
                        }
                    ]
                }
            },
            {
                "resource": {
                    "resourceType": "Condition",
                    "id": "C50.922",
                    "clinicalStatus": {
                        "coding": [
                            {
                                "system": "http://terminology.hl7.org/CodeSystem/condition-clinical",
                                "code": "active"
                            }
                        ]
                    },
                    "code": {
                        "coding": [
                            {
                                "system": "http://hl7.org/fhir/sid/icd-10",
                                "code": "C50.922",
                                "display": "Malignant neoplasm of unspecified site of left male breast"
                            }
                        ]
                    },
                    "subject": {
                        "reference": "Patient/2d5f70e4-d"
                    }
                }
            },
            null
        ]
    },
    {
        "resourceType": "Bundle",
        "type": "collection",
        "entry": [
            {
                "resource": {
                    "resourceType": "Patient",
                    "id": "5a29579f-4",
                    "name": [
                        {
                            "family": "Nelson",
                            "given": [
                                "Joseph",
                                "Nelson"
                            ]
                        }
                    ],
                    "telecom": [
                        {
                            "system": "phone",
                            "value": "(922) 246-4080"
                        }
                    ],
                    "gender": "female",
                    "birthDate": "1945-11-30",
                    "address": [
                        {
                            "line": [
                                " 81774 Kevin Freeway"
                            ],
                            "city": "New Tracy",
                            "state": "United States"
                        }
                    ]
                }
            },
            {
                "resource": {
                    "resourceType": "Condition",
                    "id": "I63.9",
                    "clinicalStatus": {
                        "coding": [
                            {
                                "system": "http://terminology.hl7.org/CodeSystem/condition-clinical",
                                "code": "active"
                            }
                        ]
                    },
                    "code": {
                        "coding": [
                            {
                                "system": "http://hl7.org/fhir/sid/icd-10",
                                "code": "I63.9",
                                "display": "Cerebral infarction, unspecified"
                            }
                        ]
                    },
                    "subject": {
                        "reference": "Patient/5a29579f-4"
                    }
                }
            },
            {
                "resource": {
                    "resourceType": "Condition",
                    "id": "I70.738",
                    "clinicalStatus": {
                        "coding": [
                            {
                                "system": "http://terminology.hl7.org/CodeSystem/condition-clinical",
                                "code": "inactive"
                            }
                        ]
                    },
                    "code": {
                        "coding": [
                            {
                                "system": "http://hl7.org/fhir/sid/icd-10",
                                "code": "I70.738",
                                "display": "Athscl type of bypass of right leg w ulcer oth prt low leg"
                            }
                        ]
                    },
                    "subject": {
                        "reference": "Patient/5a29579f-4"
                    }
                }
            },
            {
                "resource": {
                    "resourceType": "Condition",
                    "id": "I25.700",
                    "clinicalStatus": {
                        "coding": [
                            {
                                "system": "http://terminology.hl7.org/CodeSystem/condition-clinical",
                                "code": "inactive"
                            }
                        ]
                    },
                    "code": {
                        "coding": [
                            {
                                "system": "http://hl7.org/fhir/sid/icd-10",
                                "code": "I25.700",
                                "display": "Atherosclerosis of CABG, unsp, w unstable angina pectoris"
                            }
                        ]
                    },
                    "subject": {
                        "reference": "Patient/5a29579f-4"
                    }
                }
            },
            null
        ]
    },
    {
        "resourceType": "Bundle",
        "type": "collection",
        "entry": [
            {
                "resource": {
                    "resourceType": "Patient",
                    "id": "165b911a-d",
                    "name": [
                        {
                            "family": "Garner",
                            "given": [
                                "Carlos",
                                "Garner"
                            ]
                        }
                    ],
                    "telecom": [
                        {
                            "system": "phone",
                            "value": "(153) 656-8979"
                        }
                    ],
                    "gender": "male",
                    "birthDate": "2000-11-29",
                    "address": [
                        {
                            "line": [
                                " 22475 Andrew Throughway"
                            ],
                            "city": "Lake Rachel",
                            "state": "United States"
                        }
                    ]
                }
            },
            {
                "resource": {
                    "resourceType": "Condition",
                    "id": "D37.1",
                    "clinicalStatus": {
                        "coding": [
                            {
                                "system": "http://terminology.hl7.org/CodeSystem/condition-clinical",
                                "code": "active"
                            }
                        ]
                    },
                    "code": {
                        "coding": [
                            {
                                "system": "http://hl7.org/fhir/sid/icd-10",
                                "code": "D37.1",
                                "display": "Neoplasm of uncertain behavior of stomach"
                            }
                        ]
                    },
                    "subject": {
                        "reference": "Patient/165b911a-d"
                    }
                }
            },
            null
        ]
    },
    {
        "resourceType": "Bundle",
        "type": "collection",
        "entry": [
            {
                "resource": {
                    "resourceType": "Patient",
                    "id": "64ffa677-b",
                    "name": [
                        {
                            "family": "Jackson",
                            "given": [
                                "Kevin",
                                "Jackson"
                            ]
                        }
                    ],
                    "telecom": [
                        {
                            "system": "phone",
                            "value": "(845) 838-6041"
                        }
                    ],
                    "gender": "male",
                    "birthDate": "1945-10-30",
                    "address": [
                        {
                            "line": [
                                " 02101 Megan Street"
                            ],
                            "city": "Owensland",
                            "state": "United States"
                        }
                    ]
                }
            },
            {
                "resource": {
                    "resourceType": "Condition",
                    "id": "G50.0",
                    "clinicalStatus": {
                        "coding": [
                            {
                                "system": "http://terminology.hl7.org/CodeSystem/condition-clinical",
                                "code": "active"
                            }
                        ]
                    },
                    "code": {
                        "coding": [
                            {
                                "system": "http://hl7.org/fhir/sid/icd-10",
                                "code": "G50.0",
                                "display": "Trigeminal neuralgia"
                            }
                        ]
                    },
                    "subject": {
                        "reference": "Patient/64ffa677-b"
                    }
                }
            },
            null
        ]
    },
    {
        "resourceType": "Bundle",
        "type": "collection",
        "entry": [
            {
                "resource": {
                    "resourceType": "Patient",
                    "id": "68587b7a-3",
                    "name": [
                        {
                            "family": "Miller",
                            "given": [
                                "Christian",
                                "Miller"
                            ]
                        }
                    ],
                    "telecom": [
                        {
                            "system": "phone",
                            "value": "(487) 469-0788"
                        }
                    ],
                    "gender": "female",
                    "birthDate": "1979-09-01",
                    "address": [
                        {
                            "line": [
                                " 3109 Reynolds Trail"
                            ],
                            "city": "Lake Amberfurt",
                            "state": "United States"
                        }
                    ]
                }
            },
            {
                "resource": {
                    "resourceType": "Condition",
                    "id": "I63.9",
                    "clinicalStatus": {
                        "coding": [
                            {
                                "system": "http://terminology.hl7.org/CodeSystem/condition-clinical",
                                "code": "active"
                            }
                        ]
                    },
                    "code": {
                        "coding": [
                            {
                                "system": "http://hl7.org/fhir/sid/icd-10",
                                "code": "I63.9",
                                "display": "Cerebral infarction, unspecified"
                            }
                        ]
                    },
                    "subject": {
                        "reference": "Patient/68587b7a-3"
                    }
                }
            },
            {
                "resource": {
                    "resourceType": "Condition",
                    "id": "I66.11",
                    "clinicalStatus": {
                        "coding": [
                            {
                                "system": "http://terminology.hl7.org/CodeSystem/condition-clinical",
                                "code": "inactive"
                            }
                        ]
                    },
                    "code": {
                        "coding": [
                            {
                                "system": "http://hl7.org/fhir/sid/icd-10",
                                "code": "I66.11",
                                "display": "Occlusion and stenosis of right anterior cerebral artery"
                            }
                        ]
                    },
                    "subject": {
                        "reference": "Patient/68587b7a-3"
                    }
                }
            },
            {
                "resource": {
                    "resourceType": "Condition",
                    "id": "I25.752",
                    "clinicalStatus": {
                        "coding": [
                            {
                                "system": "http://terminology.hl7.org/CodeSystem/condition-clinical",
                                "code": "inactive"
                            }
                        ]
                    },
                    "code": {
                        "coding": [
                            {
                                "system": "http://hl7.org/fhir/sid/icd-10",
                                "code": "I25.752",
                                "display": "Athscl native cor art of txplt heart with refract ang pctrs"
                            }
                        ]
                    },
                    "subject": {
                        "reference": "Patient/68587b7a-3"
                    }
                }
            },
            null
        ]
    },
    {
        "resourceType": "Bundle",
        "type": "collection",
        "entry": [
            {
                "resource": {
                    "resourceType": "Patient",
                    "id": "f0d41d19-b",
                    "name": [
                        {
                            "family": "Murray",
                            "given": [
                                "Chad",
                                "Murray"
                            ]
                        }
                    ],
                    "telecom": [
                        {
                            "system": "phone",
                            "value": "(900) 273-1668"
                        }
                    ],
                    "gender": "male",
                    "birthDate": "1972-07-04",
                    "address": [
                        {
                            "line": [
                                " 790 Glenn Hollow"
                            ],
                            "city": "Alejandromouth",
                            "state": "United States"
                        }
                    ]
                }
            },
            {
                "resource": {
                    "resourceType": "Condition",
                    "id": "E11.9",
                    "clinicalStatus": {
                        "coding": [
                            {
                                "system": "http://terminology.hl7.org/CodeSystem/condition-clinical",
                                "code": "active"
                            }
                        ]
                    },
                    "code": {
                        "coding": [
                            {
                                "system": "http://hl7.org/fhir/sid/icd-10",
                                "code": "E11.9",
                                "display": "Type 2 diabetes mellitus without complications"
                            }
                        ]
                    },
                    "subject": {
                        "reference": "Patient/f0d41d19-b"
                    }
                }
            },
            null
        ]
    },
    {
        "resourceType": "Bundle",
        "type": "collection",
        "entry": [
            {
                "resource": {
                    "resourceType": "Patient",
                    "id": "d9bda7a1-2",
                    "name": [
                        {
                            "family": "Conner",
                            "given": [
                                "James",
                                "Conner"
                            ]
                        }
                    ],
                    "telecom": [
                        {
                            "system": "phone",
                            "value": "(945) 959-5726"
                        }
                    ],
                    "gender": "female",
                    "birthDate": "1947-01-12",
                    "address": [
                        {
                            "line": [
                                " 6540 Hunt Isle"
                            ],
                            "city": "Mileshaven",
                            "state": "United States"
                        }
                    ]
                }
            },
            {
                "resource": {
                    "resourceType": "Condition",
                    "id": "F84.0",
                    "clinicalStatus": {
                        "coding": [
                            {
                                "system": "http://terminology.hl7.org/CodeSystem/condition-clinical",
                                "code": "active"
                            }
                        ]
                    },
                    "code": {
                        "coding": [
                            {
                                "system": "http://hl7.org/fhir/sid/icd-10",
                                "code": "F84.0",
                                "display": "Autistic disorder"
                            }
                        ]
                    },
                    "subject": {
                        "reference": "Patient/d9bda7a1-2"
                    }
                }
            },
            null
        ]
    },
    {
        "resourceType": "Bundle",
        "type": "collection",
        "entry": [
            {
                "resource": {
                    "resourceType": "Patient",
                    "id": "69ec3c54-a",
                    "name": [
                        {
                            "family": "Riddle",
                            "given": [
                                "Daniel",
                                "Riddle"
                            ]
                        }
                    ],
                    "telecom": [
                        {
                            "system": "phone",
                            "value": "(950) 683-7856"
                        }
                    ],
                    "gender": "male",
                    "birthDate": "1982-01-13",
                    "address": [
                        {
                            "line": [
                                " 37426 Mark Mount"
                            ],
                            "city": "Ericberg",
                            "state": "United States"
                        }
                    ]
                }
            },
            {
                "resource": {
                    "resourceType": "Condition",
                    "id": "C34.90",
                    "clinicalStatus": {
                        "coding": [
                            {
                                "system": "http://terminology.hl7.org/CodeSystem/condition-clinical",
                                "code": "active"
                            }
                        ]
                    },
                    "code": {
                        "coding": [
                            {
                                "system": "http://hl7.org/fhir/sid/icd-10",
                                "code": "C34.90",
                                "display": "Malignant neoplasm of unsp part of unsp bronchus or lung"
                            }
                        ]
                    },
                    "subject": {
                        "reference": "Patient/69ec3c54-a"
                    }
                }
            },
            null
        ]
    },
    {
        "resourceType": "Bundle",
        "type": "collection",
        "entry": [
            {
                "resource": {
                    "resourceType": "Patient",
                    "id": "cc8a3bb7-8",
                    "name": [
                        {
                            "family": "Wise",
                            "given": [
                                "Duane",
                                "Wise"
                            ]
                        }
                    ],
                    "telecom": [
                        {
                            "system": "phone",
                            "value": "(182) 952-5316"
                        }
                    ],
                    "gender": "female",
                    "birthDate": "1975-12-01",
                    "address": [
                        {
                            "line": [
                                " 0627 Howell Spring"
                            ],
                            "city": "North Heatherborough",
                            "state": "United States"
                        }
                    ]
                }
            },
            {
                "resource": {
                    "resourceType": "Condition",
                    "id": "J18.9",
                    "clinicalStatus": {
                        "coding": [
                            {
                                "system": "http://terminology.hl7.org/CodeSystem/condition-clinical",
                                "code": "active"
                            }
                        ]
                    },
                    "code": {
                        "coding": [
                            {
                                "system": "http://hl7.org/fhir/sid/icd-10",
                                "code": "J18.9",
                                "display": "Pneumonia, unspecified organism"
                            }
                        ]
                    },
                    "subject": {
                        "reference": "Patient/cc8a3bb7-8"
                    }
                }
            },
            {
                "resource": {
                    "resourceType": "Condition",
                    "id": "J21.9",
                    "clinicalStatus": {
                        "coding": [
                            {
                                "system": "http://terminology.hl7.org/CodeSystem/condition-clinical",
                                "code": "inactive"
                            }
                        ]
                    },
                    "code": {
                        "coding": [
                            {
                                "system": "http://hl7.org/fhir/sid/icd-10",
                                "code": "J21.9",
                                "display": "Acute bronchiolitis, unspecified"
                            }
                        ]
                    },
                    "subject": {
                        "reference": "Patient/cc8a3bb7-8"
                    }
                }
            },
            null
        ]
    },
    {
        "resourceType": "Bundle",
        "type": "collection",
        "entry": [
            {
                "resource": {
                    "resourceType": "Patient",
                    "id": "da903f8e-0",
                    "name": [
                        {
                            "family": "Krueger",
                            "given": [
                                "Robert",
                                "Krueger"
                            ]
                        }
                    ],
                    "telecom": [
                        {
                            "system": "phone",
                            "value": "(134) 483-9664"
                        }
                    ],
                    "gender": "male",
                    "birthDate": "1974-06-13",
                    "address": [
                        {
                            "line": [
                                " 69298 Weaver Valleys"
                            ],
                            "city": "Tateberg",
                            "state": "United States"
                        }
                    ]
                }
            },
            {
                "resource": {
                    "resourceType": "Condition",
                    "id": "I66.9",
                    "clinicalStatus": {
                        "coding": [
                            {
                                "system": "http://terminology.hl7.org/CodeSystem/condition-clinical",
                                "code": "active"
                            }
                        ]
                    },
                    "code": {
                        "coding": [
                            {
                                "system": "http://hl7.org/fhir/sid/icd-10",
                                "code": "I66.9",
                                "display": "Occlusion and stenosis of unspecified cerebral artery"
                            }
                        ]
                    },
                    "subject": {
                        "reference": "Patient/da903f8e-0"
                    }
                }
            },
            null
        ]
    },
    {
        "resourceType": "Bundle",
        "type": "collection",
        "entry": [
            {
                "resource": {
                    "resourceType": "Patient",
                    "id": "49ca5803-1",
                    "name": [
                        {
                            "family": "Johnson",
                            "given": [
                                "Christopher",
                                "Johnson"
                            ]
                        }
                    ],
                    "telecom": [
                        {
                            "system": "phone",
                            "value": "(336) 745-6828"
                        }
                    ],
                    "gender": "female",
                    "birthDate": "2003-08-31",
                    "address": [
                        {
                            "line": [
                                " 054 Kristen Plaza"
                            ],
                            "city": "Lake Brianna",
                            "state": "United States"
                        }
                    ]
                }
            },
            {
                "resource": {
                    "resourceType": "Condition",
                    "id": "I87.1",
                    "clinicalStatus": {
                        "coding": [
                            {
                                "system": "http://terminology.hl7.org/CodeSystem/condition-clinical",
                                "code": "active"
                            }
                        ]
                    },
                    "code": {
                        "coding": [
                            {
                                "system": "http://hl7.org/fhir/sid/icd-10",
                                "code": "I87.1",
                                "display": "Compression of vein"
                            }
                        ]
                    },
                    "subject": {
                        "reference": "Patient/49ca5803-1"
                    }
                }
            },
            null
        ]
    },
    {
        "resourceType": "Bundle",
        "type": "collection",
        "entry": [
            {
                "resource": {
                    "resourceType": "Patient",
                    "id": "f29386c7-c",
                    "name": [
                        {
                            "family": "Pittman",
                            "given": [
                                "Richard",
                                "Pittman"
                            ]
                        }
                    ],
                    "telecom": [
                        {
                            "system": "phone",
                            "value": "(947) 364-3922"
                        }
                    ],
                    "gender": "female",
                    "birthDate": "1967-11-28",
                    "address": [
                        {
                            "line": [
                                " 883 Pamela Square"
                            ],
                            "city": "East Jenniferside",
                            "state": "United States"
                        }
                    ]
                }
            },
            {
                "resource": {
                    "resourceType": "Condition",
                    "id": "I20.81",
                    "clinicalStatus": {
                        "coding": [
                            {
                                "system": "http://terminology.hl7.org/CodeSystem/condition-clinical",
                                "code": "active"
                            }
                        ]
                    },
                    "code": {
                        "coding": [
                            {
                                "system": "http://hl7.org/fhir/sid/icd-10",
                                "code": "I20.81",
                                "display": "Angina pectoris with coronary microvascular dysfunction"
                            }
                        ]
                    },
                    "subject": {
                        "reference": "Patient/f29386c7-c"
                    }
                }
            },
            null
        ]
    },
    {
        "resourceType": "Bundle",
        "type": "collection",
        "entry": [
            {
                "resource": {
                    "resourceType": "Patient",
                    "id": "4a0b1741-0",
                    "name": [
                        {
                            "family": "Moore",
                            "given": [
                                "William",
                                "Moore"
                            ]
                        }
                    ],
                    "telecom": [
                        {
                            "system": "phone",
                            "value": "(001) 252-5536"
                        }
                    ],
                    "gender": "male",
                    "birthDate": "1938-07-04",
                    "address": [
                        {
                            "line": [
                                " 95798 Lopez Mount"
                            ],
                            "city": "Wardshire",
                            "state": "United States"
                        }
                    ]
                }
            },
            {
                "resource": {
                    "resourceType": "Condition",
                    "id": "R94.5",
                    "clinicalStatus": {
                        "coding": [
                            {
                                "system": "http://terminology.hl7.org/CodeSystem/condition-clinical",
                                "code": "active"
                            }
                        ]
                    },
                    "code": {
                        "coding": [
                            {
                                "system": "http://hl7.org/fhir/sid/icd-10",
                                "code": "R94.5",
                                "display": "Abnormal results of liver function studies"
                            }
                        ]
                    },
                    "subject": {
                        "reference": "Patient/4a0b1741-0"
                    }
                }
            },
            null
        ]
    },
    {
        "resourceType": "Bundle",
        "type": "collection",
        "entry": [
            {
                "resource": {
                    "resourceType": "Patient",
                    "id": "6394fc5e-6",
                    "name": [
                        {
                            "family": "Patterson",
                            "given": [
                                "Marc",
                                "Patterson"
                            ]
                        }
                    ],
                    "telecom": [
                        {
                            "system": "phone",
                            "value": "(001) 922-3810"
                        }
                    ],
                    "gender": "male",
                    "birthDate": "1964-09-28",
                    "address": [
                        {
                            "line": [
                                " 2312 Norman Tunnel"
                            ],
                            "city": "Littleville",
                            "state": "United States"
                        }
                    ]
                }
            },
            {
                "resource": {
                    "resourceType": "Condition",
                    "id": "C64.9",
                    "clinicalStatus": {
                        "coding": [
                            {
                                "system": "http://terminology.hl7.org/CodeSystem/condition-clinical",
                                "code": "active"
                            }
                        ]
                    },
                    "code": {
                        "coding": [
                            {
                                "system": "http://hl7.org/fhir/sid/icd-10",
                                "code": "C64.9",
                                "display": "Malignant neoplasm of unsp kidney, except renal pelvis"
                            }
                        ]
                    },
                    "subject": {
                        "reference": "Patient/6394fc5e-6"
                    }
                }
            },
            null
        ]
    },
    {
        "resourceType": "Bundle",
        "type": "collection",
        "entry": [
            {
                "resource": {
                    "resourceType": "Patient",
                    "id": "e0bfa64d-c",
                    "name": [
                        {
                            "family": "Young",
                            "given": [
                                "Adam",
                                "Young"
                            ]
                        }
                    ],
                    "telecom": [
                        {
                            "system": "phone",
                            "value": "(360) 433-9378"
                        }
                    ],
                    "gender": "male",
                    "birthDate": "1961-06-15",
                    "address": [
                        {
                            "line": [
                                " 67515 Cross Points"
                            ],
                            "city": "Port Lauren",
                            "state": "United States"
                        }
                    ]
                }
            },
            {
                "resource": {
                    "resourceType": "Condition",
                    "id": "C34.90",
                    "clinicalStatus": {
                        "coding": [
                            {
                                "system": "http://terminology.hl7.org/CodeSystem/condition-clinical",
                                "code": "active"
                            }
                        ]
                    },
                    "code": {
                        "coding": [
                            {
                                "system": "http://hl7.org/fhir/sid/icd-10",
                                "code": "C34.90",
                                "display": "Malignant neoplasm of unsp part of unsp bronchus or lung"
                            }
                        ]
                    },
                    "subject": {
                        "reference": "Patient/e0bfa64d-c"
                    }
                }
            },
            null
        ]
    },
    {
        "resourceType": "Bundle",
        "type": "collection",
        "entry": [
            {
                "resource": {
                    "resourceType": "Patient",
                    "id": "ff5cdb14-b",
                    "name": [
                        {
                            "family": "Osborn",
                            "given": [
                                "Bryan",
                                "Osborn"
                            ]
                        }
                    ],
                    "telecom": [
                        {
                            "system": "phone",
                            "value": "(001) 447-3091"
                        }
                    ],
                    "gender": "male",
                    "birthDate": "1957-09-12",
                    "address": [
                        {
                            "line": [
                                " 4544 Evan Roads"
                            ],
                            "city": "West Morganfurt",
                            "state": "United States"
                        }
                    ]
                }
            },
            {
                "resource": {
                    "resourceType": "Condition",
                    "id": "C16.2",
                    "clinicalStatus": {
                        "coding": [
                            {
                                "system": "http://terminology.hl7.org/CodeSystem/condition-clinical",
                                "code": "active"
                            }
                        ]
                    },
                    "code": {
                        "coding": [
                            {
                                "system": "http://hl7.org/fhir/sid/icd-10",
                                "code": "C16.2",
                                "display": "Malignant neoplasm of body of stomach"
                            }
                        ]
                    },
                    "subject": {
                        "reference": "Patient/ff5cdb14-b"
                    }
                }
            },
            null
        ]
    },
    {
        "resourceType": "Bundle",
        "type": "collection",
        "entry": [
            {
                "resource": {
                    "resourceType": "Patient",
                    "id": "3256a1ad-e",
                    "name": [
                        {
                            "family": "Nolan",
                            "given": [
                                "Jacob",
                                "Nolan"
                            ]
                        }
                    ],
                    "telecom": [
                        {
                            "system": "phone",
                            "value": "(468) 246-7920"
                        }
                    ],
                    "gender": "male",
                    "birthDate": "2004-06-23",
                    "address": [
                        {
                            "line": [
                                " 3895 Skinner Viaduct"
                            ],
                            "city": "New Cassandraport",
                            "state": "United States"
                        }
                    ]
                }
            },
            {
                "resource": {
                    "resourceType": "Condition",
                    "id": "C20",
                    "clinicalStatus": {
                        "coding": [
                            {
                                "system": "http://terminology.hl7.org/CodeSystem/condition-clinical",
                                "code": "active"
                            }
                        ]
                    },
                    "code": {
                        "coding": [
                            {
                                "system": "http://hl7.org/fhir/sid/icd-10",
                                "code": "C20",
                                "display": "Malignant neoplasm of rectum"
                            }
                        ]
                    },
                    "subject": {
                        "reference": "Patient/3256a1ad-e"
                    }
                }
            },
            null
        ]
    },
    {
        "resourceType": "Bundle",
        "type": "collection",
        "entry": [
            {
                "resource": {
                    "resourceType": "Patient",
                    "id": "e410ed77-5",
                    "name": [
                        {
                            "family": "Gibbs",
                            "given": [
                                "Russell",
                                "Gibbs"
                            ]
                        }
                    ],
                    "telecom": [
                        {
                            "system": "phone",
                            "value": "(518) 789-9143"
                        }
                    ],
                    "gender": "female",
                    "birthDate": "1950-10-22",
                    "address": [
                        {
                            "line": [
                                " 79469 Dana Neck"
                            ],
                            "city": "New Bailey",
                            "state": "United States"
                        }
                    ]
                }
            },
            {
                "resource": {
                    "resourceType": "Condition",
                    "id": "I63.9",
                    "clinicalStatus": {
                        "coding": [
                            {
                                "system": "http://terminology.hl7.org/CodeSystem/condition-clinical",
                                "code": "active"
                            }
                        ]
                    },
                    "code": {
                        "coding": [
                            {
                                "system": "http://hl7.org/fhir/sid/icd-10",
                                "code": "I63.9",
                                "display": "Cerebral infarction, unspecified"
                            }
                        ]
                    },
                    "subject": {
                        "reference": "Patient/e410ed77-5"
                    }
                }
            },
            null
        ]
    },
    {
        "resourceType": "Bundle",
        "type": "collection",
        "entry": [
            {
                "resource": {
                    "resourceType": "Patient",
                    "id": "9006e16d-e",
                    "name": [
                        {
                            "family": "Brooks",
                            "given": [
                                "Jordan",
                                "Brooks"
                            ]
                        }
                    ],
                    "telecom": [
                        {
                            "system": "phone",
                            "value": "(434) 538-6054"
                        }
                    ],
                    "gender": "female",
                    "birthDate": "1959-11-28",
                    "address": [
                        {
                            "line": [
                                " 44166 Melissa Mountain"
                            ],
                            "city": "Taylorville",
                            "state": "United States"
                        }
                    ]
                }
            },
            {
                "resource": {
                    "resourceType": "Condition",
                    "id": "I63.9",
                    "clinicalStatus": {
                        "coding": [
                            {
                                "system": "http://terminology.hl7.org/CodeSystem/condition-clinical",
                                "code": "active"
                            }
                        ]
                    },
                    "code": {
                        "coding": [
                            {
                                "system": "http://hl7.org/fhir/sid/icd-10",
                                "code": "I63.9",
                                "display": "Cerebral infarction, unspecified"
                            }
                        ]
                    },
                    "subject": {
                        "reference": "Patient/9006e16d-e"
                    }
                }
            },
            null
        ]
    },
    {
        "resourceType": "Bundle",
        "type": "collection",
        "entry": [
            {
                "resource": {
                    "resourceType": "Patient",
                    "id": "dbf20d8d-1",
                    "name": [
                        {
                            "family": "Good",
                            "given": [
                                "Juan",
                                "Good"
                            ]
                        }
                    ],
                    "telecom": [
                        {
                            "system": "phone",
                            "value": "(173) 799-8528"
                        }
                    ],
                    "gender": "male",
                    "birthDate": "1956-07-27",
                    "address": [
                        {
                            "line": [
                                " 352 Wells Divide"
                            ],
                            "city": "Markfurt",
                            "state": "United States"
                        }
                    ]
                }
            },
            {
                "resource": {
                    "resourceType": "Condition",
                    "id": "O26.642",
                    "clinicalStatus": {
                        "coding": [
                            {
                                "system": "http://terminology.hl7.org/CodeSystem/condition-clinical",
                                "code": "active"
                            }
                        ]
                    },
                    "code": {
                        "coding": [
                            {
                                "system": "http://hl7.org/fhir/sid/icd-10",
                                "code": "O26.642",
                                "display": "Intrahepatic cholestasis of pregnancy, second trimester"
                            }
                        ]
                    },
                    "subject": {
                        "reference": "Patient/dbf20d8d-1"
                    }
                }
            },
            null
        ]
    },
    {
        "resourceType": "Bundle",
        "type": "collection",
        "entry": [
            {
                "resource": {
                    "resourceType": "Patient",
                    "id": "c46c27d8-7",
                    "name": [
                        {
                            "family": "Mcknight",
                            "given": [
                                "Stephen",
                                "Mcknight"
                            ]
                        }
                    ],
                    "telecom": [
                        {
                            "system": "phone",
                            "value": "(001) 832-3529"
                        }
                    ],
                    "gender": "female",
                    "birthDate": "1958-09-09",
                    "address": [
                        {
                            "line": [
                                " 5222 Williams Views"
                            ],
                            "city": "North Stephanie",
                            "state": "United States"
                        }
                    ]
                }
            },
            {
                "resource": {
                    "resourceType": "Condition",
                    "id": "I69.149",
                    "clinicalStatus": {
                        "coding": [
                            {
                                "system": "http://terminology.hl7.org/CodeSystem/condition-clinical",
                                "code": "active"
                            }
                        ]
                    },
                    "code": {
                        "coding": [
                            {
                                "system": "http://hl7.org/fhir/sid/icd-10",
                                "code": "I69.149",
                                "display": "Monoplg low lmb following ntrm intcrbl hemor aff unsp side"
                            }
                        ]
                    },
                    "subject": {
                        "reference": "Patient/c46c27d8-7"
                    }
                }
            },
            null
        ]
    },
    {
        "resourceType": "Bundle",
        "type": "collection",
        "entry": [
            {
                "resource": {
                    "resourceType": "Patient",
                    "id": "249ad6c6-7",
                    "name": [
                        {
                            "family": "Rodriguez",
                            "given": [
                                "Devon",
                                "Rodriguez"
                            ]
                        }
                    ],
                    "telecom": [
                        {
                            "system": "phone",
                            "value": "(001) 682-7794"
                        }
                    ],
                    "gender": "female",
                    "birthDate": "2019-08-01",
                    "address": [
                        {
                            "line": [
                                " 898 Curtis Spurs"
                            ],
                            "city": "West Glenn",
                            "state": "United States"
                        }
                    ]
                }
            },
            {
                "resource": {
                    "resourceType": "Condition",
                    "id": "E11.9",
                    "clinicalStatus": {
                        "coding": [
                            {
                                "system": "http://terminology.hl7.org/CodeSystem/condition-clinical",
                                "code": "active"
                            }
                        ]
                    },
                    "code": {
                        "coding": [
                            {
                                "system": "http://hl7.org/fhir/sid/icd-10",
                                "code": "E11.9",
                                "display": "Type 2 diabetes mellitus without complications"
                            }
                        ]
                    },
                    "subject": {
                        "reference": "Patient/249ad6c6-7"
                    }
                }
            },
            {
                "resource": {
                    "resourceType": "Condition",
                    "id": "E02",
                    "clinicalStatus": {
                        "coding": [
                            {
                                "system": "http://terminology.hl7.org/CodeSystem/condition-clinical",
                                "code": "inactive"
                            }
                        ]
                    },
                    "code": {
                        "coding": [
                            {
                                "system": "http://hl7.org/fhir/sid/icd-10",
                                "code": "E02",
                                "display": "Subclinical iodine-deficiency hypothyroidism"
                            }
                        ]
                    },
                    "subject": {
                        "reference": "Patient/249ad6c6-7"
                    }
                }
            },
            {
                "resource": {
                    "resourceType": "Condition",
                    "id": "E79.81",
                    "clinicalStatus": {
                        "coding": [
                            {
                                "system": "http://terminology.hl7.org/CodeSystem/condition-clinical",
                                "code": "inactive"
                            }
                        ]
                    },
                    "code": {
                        "coding": [
                            {
                                "system": "http://hl7.org/fhir/sid/icd-10",
                                "code": "E79.81",
                                "display": "Aicardi-Goutieres syndrome"
                            }
                        ]
                    },
                    "subject": {
                        "reference": "Patient/249ad6c6-7"
                    }
                }
            },
            null
        ]
    },
    {
        "resourceType": "Bundle",
        "type": "collection",
        "entry": [
            {
                "resource": {
                    "resourceType": "Patient",
                    "id": "222e845a-9",
                    "name": [
                        {
                            "family": "Middleton",
                            "given": [
                                "Chris",
                                "Middleton"
                            ]
                        }
                    ],
                    "telecom": [
                        {
                            "system": "phone",
                            "value": "(488) 801-0722"
                        }
                    ],
                    "gender": "female",
                    "birthDate": "2010-11-14",
                    "address": [
                        {
                            "line": [
                                " 5394 Jesus Cliff"
                            ],
                            "city": "South Michaelland",
                            "state": "United States"
                        }
                    ]
                }
            },
            {
                "resource": {
                    "resourceType": "Condition",
                    "id": "C85.9A",
                    "clinicalStatus": {
                        "coding": [
                            {
                                "system": "http://terminology.hl7.org/CodeSystem/condition-clinical",
                                "code": "active"
                            }
                        ]
                    },
                    "code": {
                        "coding": [
                            {
                                "system": "http://hl7.org/fhir/sid/icd-10",
                                "code": "C85.9A",
                                "display": "Non-Hodgkin lymphoma, unspecified, in remission"
                            }
                        ]
                    },
                    "subject": {
                        "reference": "Patient/222e845a-9"
                    }
                }
            },
            null
        ]
    },
    {
        "resourceType": "Bundle",
        "type": "collection",
        "entry": [
            {
                "resource": {
                    "resourceType": "Patient",
                    "id": "d8c94ac0-2",
                    "name": [
                        {
                            "family": "Alexander",
                            "given": [
                                "David",
                                "Alexander"
                            ]
                        }
                    ],
                    "telecom": [
                        {
                            "system": "phone",
                            "value": "(001) 950-7166"
                        }
                    ],
                    "gender": "male",
                    "birthDate": "1959-09-13",
                    "address": [
                        {
                            "line": [
                                " 999 Gordon Square"
                            ],
                            "city": "Brendafort",
                            "state": "United States"
                        }
                    ]
                }
            },
            {
                "resource": {
                    "resourceType": "Condition",
                    "id": "R91.1",
                    "clinicalStatus": {
                        "coding": [
                            {
                                "system": "http://terminology.hl7.org/CodeSystem/condition-clinical",
                                "code": "active"
                            }
                        ]
                    },
                    "code": {
                        "coding": [
                            {
                                "system": "http://hl7.org/fhir/sid/icd-10",
                                "code": "R91.1",
                                "display": "Solitary pulmonary nodule"
                            }
                        ]
                    },
                    "subject": {
                        "reference": "Patient/d8c94ac0-2"
                    }
                }
            },
            null
        ]
    },
    {
        "resourceType": "Bundle",
        "type": "collection",
        "entry": [
            {
                "resource": {
                    "resourceType": "Patient",
                    "id": "7b275b2d-0",
                    "name": [
                        {
                            "family": "Guerra",
                            "given": [
                                "Dennis",
                                "Guerra"
                            ]
                        }
                    ],
                    "telecom": [
                        {
                            "system": "phone",
                            "value": "(970) 217-5604"
                        }
                    ],
                    "gender": "female",
                    "birthDate": "1952-05-21",
                    "address": [
                        {
                            "line": [
                                " 5628 Foley Harbor"
                            ],
                            "city": "New Chad",
                            "state": "United States"
                        }
                    ]
                }
            },
            {
                "resource": {
                    "resourceType": "Condition",
                    "id": "C50.911",
                    "clinicalStatus": {
                        "coding": [
                            {
                                "system": "http://terminology.hl7.org/CodeSystem/condition-clinical",
                                "code": "active"
                            }
                        ]
                    },
                    "code": {
                        "coding": [
                            {
                                "system": "http://hl7.org/fhir/sid/icd-10",
                                "code": "C50.911",
                                "display": "Malignant neoplasm of unsp site of right female breast"
                            }
                        ]
                    },
                    "subject": {
                        "reference": "Patient/7b275b2d-0"
                    }
                }
            },
            null
        ]
    },
    {
        "resourceType": "Bundle",
        "type": "collection",
        "entry": [
            {
                "resource": {
                    "resourceType": "Patient",
                    "id": "75848271-d",
                    "name": [
                        {
                            "family": "Clarke",
                            "given": [
                                "Peter",
                                "Clarke"
                            ]
                        }
                    ],
                    "telecom": [
                        {
                            "system": "phone",
                            "value": "(899) 958-5710"
                        }
                    ],
                    "gender": "male",
                    "birthDate": "2008-06-01",
                    "address": [
                        {
                            "line": [
                                " 475 Frank Spur"
                            ],
                            "city": "East Erica",
                            "state": "United States"
                        }
                    ]
                }
            },
            {
                "resource": {
                    "resourceType": "Condition",
                    "id": "C92.00",
                    "clinicalStatus": {
                        "coding": [
                            {
                                "system": "http://terminology.hl7.org/CodeSystem/condition-clinical",
                                "code": "active"
                            }
                        ]
                    },
                    "code": {
                        "coding": [
                            {
                                "system": "http://hl7.org/fhir/sid/icd-10",
                                "code": "C92.00",
                                "display": "Acute myeloblastic leukemia, not having achieved remission"
                            }
                        ]
                    },
                    "subject": {
                        "reference": "Patient/75848271-d"
                    }
                }
            },
            null
        ]
    },
    {
        "resourceType": "Bundle",
        "type": "collection",
        "entry": [
            {
                "resource": {
                    "resourceType": "Patient",
                    "id": "be910175-3",
                    "name": [
                        {
                            "family": "Kennedy",
                            "given": [
                                "Luis",
                                "Kennedy"
                            ]
                        }
                    ],
                    "telecom": [
                        {
                            "system": "phone",
                            "value": "(440) 464-4843"
                        }
                    ],
                    "gender": "male",
                    "birthDate": "1951-01-09",
                    "address": [
                        {
                            "line": [
                                " 9919 Samantha Flat"
                            ],
                            "city": "North Nicholasmouth",
                            "state": "United States"
                        }
                    ]
                }
            },
            {
                "resource": {
                    "resourceType": "Condition",
                    "id": "I63.9",
                    "clinicalStatus": {
                        "coding": [
                            {
                                "system": "http://terminology.hl7.org/CodeSystem/condition-clinical",
                                "code": "active"
                            }
                        ]
                    },
                    "code": {
                        "coding": [
                            {
                                "system": "http://hl7.org/fhir/sid/icd-10",
                                "code": "I63.9",
                                "display": "Cerebral infarction, unspecified"
                            }
                        ]
                    },
                    "subject": {
                        "reference": "Patient/be910175-3"
                    }
                }
            },
            {
                "resource": {
                    "resourceType": "Condition",
                    "id": "I66.9",
                    "clinicalStatus": {
                        "coding": [
                            {
                                "system": "http://terminology.hl7.org/CodeSystem/condition-clinical",
                                "code": "inactive"
                            }
                        ]
                    },
                    "code": {
                        "coding": [
                            {
                                "system": "http://hl7.org/fhir/sid/icd-10",
                                "code": "I66.9",
                                "display": "Occlusion and stenosis of unspecified cerebral artery"
                            }
                        ]
                    },
                    "subject": {
                        "reference": "Patient/be910175-3"
                    }
                }
            },
            null
        ]
    },
    {
        "resourceType": "Bundle",
        "type": "collection",
        "entry": [
            {
                "resource": {
                    "resourceType": "Patient",
                    "id": "f0f6fe13-1",
                    "name": [
                        {
                            "family": "Bennett",
                            "given": [
                                "Jordan",
                                "Bennett"
                            ]
                        }
                    ],
                    "telecom": [
                        {
                            "system": "phone",
                            "value": "(819) 318-4158"
                        }
                    ],
                    "gender": "female",
                    "birthDate": "1981-04-30",
                    "address": [
                        {
                            "line": [
                                " 9733 Pitts Ridge"
                            ],
                            "city": "Bondhaven",
                            "state": "United States"
                        }
                    ]
                }
            },
            {
                "resource": {
                    "resourceType": "Condition",
                    "id": "D61.9",
                    "clinicalStatus": {
                        "coding": [
                            {
                                "system": "http://terminology.hl7.org/CodeSystem/condition-clinical",
                                "code": "active"
                            }
                        ]
                    },
                    "code": {
                        "coding": [
                            {
                                "system": "http://hl7.org/fhir/sid/icd-10",
                                "code": "D61.9",
                                "display": "Aplastic anemia, unspecified"
                            }
                        ]
                    },
                    "subject": {
                        "reference": "Patient/f0f6fe13-1"
                    }
                }
            },
            null
        ]
    },
    {
        "resourceType": "Bundle",
        "type": "collection",
        "entry": [
            {
                "resource": {
                    "resourceType": "Patient",
                    "id": "baa39e3e-1",
                    "name": [
                        {
                            "family": "Jones",
                            "given": [
                                "Stanley",
                                "Jones"
                            ]
                        }
                    ],
                    "telecom": [
                        {
                            "system": "phone",
                            "value": "(719) 825-5630"
                        }
                    ],
                    "gender": "male",
                    "birthDate": "1951-07-08",
                    "address": [
                        {
                            "line": [
                                " 662 Lozano Hill"
                            ],
                            "city": "Jonathanton",
                            "state": "United States"
                        }
                    ]
                }
            },
            {
                "resource": {
                    "resourceType": "Condition",
                    "id": "I10",
                    "clinicalStatus": {
                        "coding": [
                            {
                                "system": "http://terminology.hl7.org/CodeSystem/condition-clinical",
                                "code": "active"
                            }
                        ]
                    },
                    "code": {
                        "coding": [
                            {
                                "system": "http://hl7.org/fhir/sid/icd-10",
                                "code": "I10",
                                "display": "Essential (primary) hypertension"
                            }
                        ]
                    },
                    "subject": {
                        "reference": "Patient/baa39e3e-1"
                    }
                }
            },
            null
        ]
    },
    {
        "resourceType": "Bundle",
        "type": "collection",
        "entry": [
            {
                "resource": {
                    "resourceType": "Patient",
                    "id": "976dc932-2",
                    "name": [
                        {
                            "family": "Krueger",
                            "given": [
                                "Nicholas",
                                "Krueger"
                            ]
                        }
                    ],
                    "telecom": [
                        {
                            "system": "phone",
                            "value": "(540) 712-0035"
                        }
                    ],
                    "gender": "female",
                    "birthDate": "1984-02-05",
                    "address": [
                        {
                            "line": [
                                " 7987 Burke Ports"
                            ],
                            "city": "North Amanda",
                            "state": "United States"
                        }
                    ]
                }
            },
            {
                "resource": {
                    "resourceType": "Condition",
                    "id": "I82.819",
                    "clinicalStatus": {
                        "coding": [
                            {
                                "system": "http://terminology.hl7.org/CodeSystem/condition-clinical",
                                "code": "active"
                            }
                        ]
                    },
                    "code": {
                        "coding": [
                            {
                                "system": "http://hl7.org/fhir/sid/icd-10",
                                "code": "I82.819",
                                "display": "Embolism and thrombosis of superficial vn unsp low extrm"
                            }
                        ]
                    },
                    "subject": {
                        "reference": "Patient/976dc932-2"
                    }
                }
            },
            null
        ]
    },
    {
        "resourceType": "Bundle",
        "type": "collection",
        "entry": [
            {
                "resource": {
                    "resourceType": "Patient",
                    "id": "4fb98cbb-e",
                    "name": [
                        {
                            "family": "Prince",
                            "given": [
                                "Christopher",
                                "Prince"
                            ]
                        }
                    ],
                    "telecom": [
                        {
                            "system": "phone",
                            "value": "(690) 435-4531"
                        }
                    ],
                    "gender": "male",
                    "birthDate": "1973-07-07",
                    "address": [
                        {
                            "line": [
                                " 702 Russell Mission"
                            ],
                            "city": "New Matthew",
                            "state": "United States"
                        }
                    ]
                }
            },
            {
                "resource": {
                    "resourceType": "Condition",
                    "id": "I63.9",
                    "clinicalStatus": {
                        "coding": [
                            {
                                "system": "http://terminology.hl7.org/CodeSystem/condition-clinical",
                                "code": "active"
                            }
                        ]
                    },
                    "code": {
                        "coding": [
                            {
                                "system": "http://hl7.org/fhir/sid/icd-10",
                                "code": "I63.9",
                                "display": "Cerebral infarction, unspecified"
                            }
                        ]
                    },
                    "subject": {
                        "reference": "Patient/4fb98cbb-e"
                    }
                }
            },
            {
                "resource": {
                    "resourceType": "Condition",
                    "id": "I70.762",
                    "clinicalStatus": {
                        "coding": [
                            {
                                "system": "http://terminology.hl7.org/CodeSystem/condition-clinical",
                                "code": "inactive"
                            }
                        ]
                    },
                    "code": {
                        "coding": [
                            {
                                "system": "http://hl7.org/fhir/sid/icd-10",
                                "code": "I70.762",
                                "display": "Athscl type of bypass of the extrm w gangrene, left leg"
                            }
                        ]
                    },
                    "subject": {
                        "reference": "Patient/4fb98cbb-e"
                    }
                }
            },
            {
                "resource": {
                    "resourceType": "Condition",
                    "id": "I10",
                    "clinicalStatus": {
                        "coding": [
                            {
                                "system": "http://terminology.hl7.org/CodeSystem/condition-clinical",
                                "code": "inactive"
                            }
                        ]
                    },
                    "code": {
                        "coding": [
                            {
                                "system": "http://hl7.org/fhir/sid/icd-10",
                                "code": "I10",
                                "display": "Essential (primary) hypertension"
                            }
                        ]
                    },
                    "subject": {
                        "reference": "Patient/4fb98cbb-e"
                    }
                }
            },
            null
        ]
    },
    {
        "resourceType": "Bundle",
        "type": "collection",
        "entry": [
            {
                "resource": {
                    "resourceType": "Patient",
                    "id": "171eecb2-1",
                    "name": [
                        {
                            "family": "Ross",
                            "given": [
                                "Peter",
                                "Ross"
                            ]
                        }
                    ],
                    "telecom": [
                        {
                            "system": "phone",
                            "value": "(352) 287-8287"
                        }
                    ],
                    "gender": "male",
                    "birthDate": "1946-03-06",
                    "address": [
                        {
                            "line": [
                                " 19906 Butler Ferry"
                            ],
                            "city": "West Nicole",
                            "state": "United States"
                        }
                    ]
                }
            },
            {
                "resource": {
                    "resourceType": "Condition",
                    "id": "J40",
                    "clinicalStatus": {
                        "coding": [
                            {
                                "system": "http://terminology.hl7.org/CodeSystem/condition-clinical",
                                "code": "active"
                            }
                        ]
                    },
                    "code": {
                        "coding": [
                            {
                                "system": "http://hl7.org/fhir/sid/icd-10",
                                "code": "J40",
                                "display": "Bronchitis, not specified as acute or chronic"
                            }
                        ]
                    },
                    "subject": {
                        "reference": "Patient/171eecb2-1"
                    }
                }
            },
            null
        ]
    },
    {
        "resourceType": "Bundle",
        "type": "collection",
        "entry": [
            {
                "resource": {
                    "resourceType": "Patient",
                    "id": "e34d68dc-0",
                    "name": [
                        {
                            "family": "Stone",
                            "given": [
                                "Ronald",
                                "Stone"
                            ]
                        }
                    ],
                    "telecom": [
                        {
                            "system": "phone",
                            "value": "(799) 462-8933"
                        }
                    ],
                    "gender": "female",
                    "birthDate": "1965-11-05",
                    "address": [
                        {
                            "line": [
                                " 8808 Patterson Forks"
                            ],
                            "city": "Tonistad",
                            "state": "United States"
                        }
                    ]
                }
            },
            {
                "resource": {
                    "resourceType": "Condition",
                    "id": "I10",
                    "clinicalStatus": {
                        "coding": [
                            {
                                "system": "http://terminology.hl7.org/CodeSystem/condition-clinical",
                                "code": "active"
                            }
                        ]
                    },
                    "code": {
                        "coding": [
                            {
                                "system": "http://hl7.org/fhir/sid/icd-10",
                                "code": "I10",
                                "display": "Essential (primary) hypertension"
                            }
                        ]
                    },
                    "subject": {
                        "reference": "Patient/e34d68dc-0"
                    }
                }
            },
            {
                "resource": {
                    "resourceType": "Condition",
                    "id": "I66.21",
                    "clinicalStatus": {
                        "coding": [
                            {
                                "system": "http://terminology.hl7.org/CodeSystem/condition-clinical",
                                "code": "inactive"
                            }
                        ]
                    },
                    "code": {
                        "coding": [
                            {
                                "system": "http://hl7.org/fhir/sid/icd-10",
                                "code": "I66.21",
                                "display": "Occlusion and stenosis of right posterior cerebral artery"
                            }
                        ]
                    },
                    "subject": {
                        "reference": "Patient/e34d68dc-0"
                    }
                }
            },
            {
                "resource": {
                    "resourceType": "Condition",
                    "id": "I25.722",
                    "clinicalStatus": {
                        "coding": [
                            {
                                "system": "http://terminology.hl7.org/CodeSystem/condition-clinical",
                                "code": "inactive"
                            }
                        ]
                    },
                    "code": {
                        "coding": [
                            {
                                "system": "http://hl7.org/fhir/sid/icd-10",
                                "code": "I25.722",
                                "display": "Athscl autologous artery CABG with refractory ang pctrs"
                            }
                        ]
                    },
                    "subject": {
                        "reference": "Patient/e34d68dc-0"
                    }
                }
            },
            null
        ]
    },
    {
        "resourceType": "Bundle",
        "type": "collection",
        "entry": [
            {
                "resource": {
                    "resourceType": "Patient",
                    "id": "b3b55b35-e",
                    "name": [
                        {
                            "family": "Lamb",
                            "given": [
                                "Benjamin",
                                "Lamb"
                            ]
                        }
                    ],
                    "telecom": [
                        {
                            "system": "phone",
                            "value": "(192) 988-3743"
                        }
                    ],
                    "gender": "male",
                    "birthDate": "1969-01-13",
                    "address": [
                        {
                            "line": [
                                " 66316 Howell Hollow"
                            ],
                            "city": "Wilsonstad",
                            "state": "United States"
                        }
                    ]
                }
            },
            {
                "resource": {
                    "resourceType": "Condition",
                    "id": "C20",
                    "clinicalStatus": {
                        "coding": [
                            {
                                "system": "http://terminology.hl7.org/CodeSystem/condition-clinical",
                                "code": "active"
                            }
                        ]
                    },
                    "code": {
                        "coding": [
                            {
                                "system": "http://hl7.org/fhir/sid/icd-10",
                                "code": "C20",
                                "display": "Malignant neoplasm of rectum"
                            }
                        ]
                    },
                    "subject": {
                        "reference": "Patient/b3b55b35-e"
                    }
                }
            },
            null
        ]
    },
    {
        "resourceType": "Bundle",
        "type": "collection",
        "entry": [
            {
                "resource": {
                    "resourceType": "Patient",
                    "id": "253878dc-b",
                    "name": [
                        {
                            "family": "Mason",
                            "given": [
                                "Steven",
                                "Mason"
                            ]
                        }
                    ],
                    "telecom": [
                        {
                            "system": "phone",
                            "value": "(990) 348-3532"
                        }
                    ],
                    "gender": "female",
                    "birthDate": "1988-06-06",
                    "address": [
                        {
                            "line": [
                                " 4742 Cameron Ways"
                            ],
                            "city": "Port Markberg",
                            "state": "United States"
                        }
                    ]
                }
            },
            {
                "resource": {
                    "resourceType": "Condition",
                    "id": "C85.91",
                    "clinicalStatus": {
                        "coding": [
                            {
                                "system": "http://terminology.hl7.org/CodeSystem/condition-clinical",
                                "code": "active"
                            }
                        ]
                    },
                    "code": {
                        "coding": [
                            {
                                "system": "http://hl7.org/fhir/sid/icd-10",
                                "code": "C85.91",
                                "display": "Non-Hodgkin lymphoma, unsp, nodes of head, face, and neck"
                            }
                        ]
                    },
                    "subject": {
                        "reference": "Patient/253878dc-b"
                    }
                }
            },
            null
        ]
    },
    {
        "resourceType": "Bundle",
        "type": "collection",
        "entry": [
            {
                "resource": {
                    "resourceType": "Patient",
                    "id": "211d6103-f",
                    "name": [
                        {
                            "family": "Williamson",
                            "given": [
                                "Travis",
                                "Williamson"
                            ]
                        }
                    ],
                    "telecom": [
                        {
                            "system": "phone",
                            "value": "(489) 638-9831"
                        }
                    ],
                    "gender": "male",
                    "birthDate": "1948-06-27",
                    "address": [
                        {
                            "line": [
                                " 55825 Kim Ports"
                            ],
                            "city": "East Sandra",
                            "state": "United States"
                        }
                    ]
                }
            },
            {
                "resource": {
                    "resourceType": "Condition",
                    "id": "E04.1",
                    "clinicalStatus": {
                        "coding": [
                            {
                                "system": "http://terminology.hl7.org/CodeSystem/condition-clinical",
                                "code": "active"
                            }
                        ]
                    },
                    "code": {
                        "coding": [
                            {
                                "system": "http://hl7.org/fhir/sid/icd-10",
                                "code": "E04.1",
                                "display": "Nontoxic single thyroid nodule"
                            }
                        ]
                    },
                    "subject": {
                        "reference": "Patient/211d6103-f"
                    }
                }
            },
            null
        ]
    },
    {
        "resourceType": "Bundle",
        "type": "collection",
        "entry": [
            {
                "resource": {
                    "resourceType": "Patient",
                    "id": "2bcf7200-0",
                    "name": [
                        {
                            "family": "Nichols",
                            "given": [
                                "Kevin",
                                "Nichols"
                            ]
                        }
                    ],
                    "telecom": [
                        {
                            "system": "phone",
                            "value": "(001) 213-3413"
                        }
                    ],
                    "gender": "female",
                    "birthDate": "1954-08-14",
                    "address": [
                        {
                            "line": [
                                " 277 Kyle Vista"
                            ],
                            "city": "Micheletown",
                            "state": "United States"
                        }
                    ]
                }
            },
            {
                "resource": {
                    "resourceType": "Condition",
                    "id": "E78.5",
                    "clinicalStatus": {
                        "coding": [
                            {
                                "system": "http://terminology.hl7.org/CodeSystem/condition-clinical",
                                "code": "active"
                            }
                        ]
                    },
                    "code": {
                        "coding": [
                            {
                                "system": "http://hl7.org/fhir/sid/icd-10",
                                "code": "E78.5",
                                "display": "Hyperlipidemia, unspecified"
                            }
                        ]
                    },
                    "subject": {
                        "reference": "Patient/2bcf7200-0"
                    }
                }
            },
            null
        ]
    },
    {
        "resourceType": "Bundle",
        "type": "collection",
        "entry": [
            {
                "resource": {
                    "resourceType": "Patient",
                    "id": "1cf73ebb-4",
                    "name": [
                        {
                            "family": "Rivera",
                            "given": [
                                "Manuel",
                                "Rivera"
                            ]
                        }
                    ],
                    "telecom": [
                        {
                            "system": "phone",
                            "value": "(001) 983-4610"
                        }
                    ],
                    "gender": "male",
                    "birthDate": "1976-04-30",
                    "address": [
                        {
                            "line": [
                                " 6869 Mary Gateway"
                            ],
                            "city": "Lake Nicolebury",
                            "state": "United States"
                        }
                    ]
                }
            },
            {
                "resource": {
                    "resourceType": "Condition",
                    "id": "J84.9",
                    "clinicalStatus": {
                        "coding": [
                            {
                                "system": "http://terminology.hl7.org/CodeSystem/condition-clinical",
                                "code": "active"
                            }
                        ]
                    },
                    "code": {
                        "coding": [
                            {
                                "system": "http://hl7.org/fhir/sid/icd-10",
                                "code": "J84.9",
                                "display": "Interstitial pulmonary disease, unspecified"
                            }
                        ]
                    },
                    "subject": {
                        "reference": "Patient/1cf73ebb-4"
                    }
                }
            },
            null
        ]
    },
    {
        "resourceType": "Bundle",
        "type": "collection",
        "entry": [
            {
                "resource": {
                    "resourceType": "Patient",
                    "id": "98670b93-0",
                    "name": [
                        {
                            "family": "Hunt",
                            "given": [
                                "Alex",
                                "Hunt"
                            ]
                        }
                    ],
                    "telecom": [
                        {
                            "system": "phone",
                            "value": "(675) 362-3594"
                        }
                    ],
                    "gender": "female",
                    "birthDate": "1956-03-02",
                    "address": [
                        {
                            "line": [
                                " 01416 Erin Corners"
                            ],
                            "city": "Port Juliehaven",
                            "state": "United States"
                        }
                    ]
                }
            },
            {
                "resource": {
                    "resourceType": "Condition",
                    "id": "I10",
                    "clinicalStatus": {
                        "coding": [
                            {
                                "system": "http://terminology.hl7.org/CodeSystem/condition-clinical",
                                "code": "active"
                            }
                        ]
                    },
                    "code": {
                        "coding": [
                            {
                                "system": "http://hl7.org/fhir/sid/icd-10",
                                "code": "I10",
                                "display": "Essential (primary) hypertension"
                            }
                        ]
                    },
                    "subject": {
                        "reference": "Patient/98670b93-0"
                    }
                }
            },
            {
                "resource": {
                    "resourceType": "Condition",
                    "id": "I61.9",
                    "clinicalStatus": {
                        "coding": [
                            {
                                "system": "http://terminology.hl7.org/CodeSystem/condition-clinical",
                                "code": "inactive"
                            }
                        ]
                    },
                    "code": {
                        "coding": [
                            {
                                "system": "http://hl7.org/fhir/sid/icd-10",
                                "code": "I61.9",
                                "display": "Nontraumatic intracerebral hemorrhage, unspecified"
                            }
                        ]
                    },
                    "subject": {
                        "reference": "Patient/98670b93-0"
                    }
                }
            },
            {
                "resource": {
                    "resourceType": "Condition",
                    "id": "I25.799",
                    "clinicalStatus": {
                        "coding": [
                            {
                                "system": "http://terminology.hl7.org/CodeSystem/condition-clinical",
                                "code": "inactive"
                            }
                        ]
                    },
                    "code": {
                        "coding": [
                            {
                                "system": "http://hl7.org/fhir/sid/icd-10",
                                "code": "I25.799",
                                "display": "Atherosclerosis of CABG w unsp angina pectoris"
                            }
                        ]
                    },
                    "subject": {
                        "reference": "Patient/98670b93-0"
                    }
                }
            },
            null
        ]
    },
    {
        "resourceType": "Bundle",
        "type": "collection",
        "entry": [
            {
                "resource": {
                    "resourceType": "Patient",
                    "id": "ab5536d9-2",
                    "name": [
                        {
                            "family": "Maldonado",
                            "given": [
                                "Jeffrey",
                                "Maldonado"
                            ]
                        }
                    ],
                    "telecom": [
                        {
                            "system": "phone",
                            "value": "(522) 750-5038"
                        }
                    ],
                    "gender": "female",
                    "birthDate": "1954-07-14",
                    "address": [
                        {
                            "line": [
                                " 256 Wilson Gardens"
                            ],
                            "city": "Susanborough",
                            "state": "United States"
                        }
                    ]
                }
            },
            {
                "resource": {
                    "resourceType": "Condition",
                    "id": "I63.9",
                    "clinicalStatus": {
                        "coding": [
                            {
                                "system": "http://terminology.hl7.org/CodeSystem/condition-clinical",
                                "code": "active"
                            }
                        ]
                    },
                    "code": {
                        "coding": [
                            {
                                "system": "http://hl7.org/fhir/sid/icd-10",
                                "code": "I63.9",
                                "display": "Cerebral infarction, unspecified"
                            }
                        ]
                    },
                    "subject": {
                        "reference": "Patient/ab5536d9-2"
                    }
                }
            },
            null
        ]
    },
    {
        "resourceType": "Bundle",
        "type": "collection",
        "entry": [
            {
                "resource": {
                    "resourceType": "Patient",
                    "id": "0a8d28b8-e",
                    "name": [
                        {
                            "family": "Bell",
                            "given": [
                                "John",
                                "Bell"
                            ]
                        }
                    ],
                    "telecom": [
                        {
                            "system": "phone",
                            "value": "(446) 596-0891"
                        }
                    ],
                    "gender": "male",
                    "birthDate": "1961-04-25",
                    "address": [
                        {
                            "line": [
                                " 026 Michelle Curve"
                            ],
                            "city": "Keithborough",
                            "state": "United States"
                        }
                    ]
                }
            },
            {
                "resource": {
                    "resourceType": "Condition",
                    "id": "I25.2",
                    "clinicalStatus": {
                        "coding": [
                            {
                                "system": "http://terminology.hl7.org/CodeSystem/condition-clinical",
                                "code": "active"
                            }
                        ]
                    },
                    "code": {
                        "coding": [
                            {
                                "system": "http://hl7.org/fhir/sid/icd-10",
                                "code": "I25.2",
                                "display": "Old myocardial infarction"
                            }
                        ]
                    },
                    "subject": {
                        "reference": "Patient/0a8d28b8-e"
                    }
                }
            },
            null
        ]
    },
    {
        "resourceType": "Bundle",
        "type": "collection",
        "entry": [
            {
                "resource": {
                    "resourceType": "Patient",
                    "id": "3fb13093-1",
                    "name": [
                        {
                            "family": "Chen",
                            "given": [
                                "Randy",
                                "Chen"
                            ]
                        }
                    ],
                    "telecom": [
                        {
                            "system": "phone",
                            "value": "(001) 384-8758"
                        }
                    ],
                    "gender": "female",
                    "birthDate": "1996-10-20",
                    "address": [
                        {
                            "line": [
                                " 851 Howe Path"
                            ],
                            "city": "Dunnberg",
                            "state": "United States"
                        }
                    ]
                }
            },
            {
                "resource": {
                    "resourceType": "Condition",
                    "id": "P59.9",
                    "clinicalStatus": {
                        "coding": [
                            {
                                "system": "http://terminology.hl7.org/CodeSystem/condition-clinical",
                                "code": "active"
                            }
                        ]
                    },
                    "code": {
                        "coding": [
                            {
                                "system": "http://hl7.org/fhir/sid/icd-10",
                                "code": "P59.9",
                                "display": "Neonatal jaundice, unspecified"
                            }
                        ]
                    },
                    "subject": {
                        "reference": "Patient/3fb13093-1"
                    }
                }
            },
            null
        ]
    },
    {
        "resourceType": "Bundle",
        "type": "collection",
        "entry": [
            {
                "resource": {
                    "resourceType": "Patient",
                    "id": "eca89794-7",
                    "name": [
                        {
                            "family": "James",
                            "given": [
                                "Sean",
                                "James"
                            ]
                        }
                    ],
                    "telecom": [
                        {
                            "system": "phone",
                            "value": "(129) 886-2737"
                        }
                    ],
                    "gender": "male",
                    "birthDate": "1967-07-31",
                    "address": [
                        {
                            "line": [
                                " 0520 Pearson Terrace"
                            ],
                            "city": "West Andrewville",
                            "state": "United States"
                        }
                    ]
                }
            },
            {
                "resource": {
                    "resourceType": "Condition",
                    "id": "I63.9",
                    "clinicalStatus": {
                        "coding": [
                            {
                                "system": "http://terminology.hl7.org/CodeSystem/condition-clinical",
                                "code": "active"
                            }
                        ]
                    },
                    "code": {
                        "coding": [
                            {
                                "system": "http://hl7.org/fhir/sid/icd-10",
                                "code": "I63.9",
                                "display": "Cerebral infarction, unspecified"
                            }
                        ]
                    },
                    "subject": {
                        "reference": "Patient/eca89794-7"
                    }
                }
            },
            {
                "resource": {
                    "resourceType": "Condition",
                    "id": "I66.13",
                    "clinicalStatus": {
                        "coding": [
                            {
                                "system": "http://terminology.hl7.org/CodeSystem/condition-clinical",
                                "code": "inactive"
                            }
                        ]
                    },
                    "code": {
                        "coding": [
                            {
                                "system": "http://hl7.org/fhir/sid/icd-10",
                                "code": "I66.13",
                                "display": "Occlusion and stenosis of bi anterior cerebral arteries"
                            }
                        ]
                    },
                    "subject": {
                        "reference": "Patient/eca89794-7"
                    }
                }
            },
            null
        ]
    },
    {
        "resourceType": "Bundle",
        "type": "collection",
        "entry": [
            {
                "resource": {
                    "resourceType": "Patient",
                    "id": "8dc6b1cc-8",
                    "name": [
                        {
                            "family": "Carrillo",
                            "given": [
                                "Douglas",
                                "Carrillo"
                            ]
                        }
                    ],
                    "telecom": [
                        {
                            "system": "phone",
                            "value": "(001) 241-9485"
                        }
                    ],
                    "gender": "male",
                    "birthDate": "1971-11-02",
                    "address": [
                        {
                            "line": [
                                " 179 Lisa Plains"
                            ],
                            "city": "Lake Jennifermouth",
                            "state": "United States"
                        }
                    ]
                }
            },
            {
                "resource": {
                    "resourceType": "Condition",
                    "id": "E11.9",
                    "clinicalStatus": {
                        "coding": [
                            {
                                "system": "http://terminology.hl7.org/CodeSystem/condition-clinical",
                                "code": "active"
                            }
                        ]
                    },
                    "code": {
                        "coding": [
                            {
                                "system": "http://hl7.org/fhir/sid/icd-10",
                                "code": "E11.9",
                                "display": "Type 2 diabetes mellitus without complications"
                            }
                        ]
                    },
                    "subject": {
                        "reference": "Patient/8dc6b1cc-8"
                    }
                }
            },
            null
        ]
    },
    {
        "resourceType": "Bundle",
        "type": "collection",
        "entry": [
            {
                "resource": {
                    "resourceType": "Patient",
                    "id": "47226799-a",
                    "name": [
                        {
                            "family": "Richmond",
                            "given": [
                                "Paul",
                                "Richmond"
                            ]
                        }
                    ],
                    "telecom": [
                        {
                            "system": "phone",
                            "value": "(896) 842-8530"
                        }
                    ],
                    "gender": "female",
                    "birthDate": "1941-03-26",
                    "address": [
                        {
                            "line": [
                                " 17058 Kristin Ville"
                            ],
                            "city": "North Maryfurt",
                            "state": "United States"
                        }
                    ]
                }
            },
            {
                "resource": {
                    "resourceType": "Condition",
                    "id": "K76.0",
                    "clinicalStatus": {
                        "coding": [
                            {
                                "system": "http://terminology.hl7.org/CodeSystem/condition-clinical",
                                "code": "active"
                            }
                        ]
                    },
                    "code": {
                        "coding": [
                            {
                                "system": "http://hl7.org/fhir/sid/icd-10",
                                "code": "K76.0",
                                "display": "Fatty (change of) liver, not elsewhere classified"
                            }
                        ]
                    },
                    "subject": {
                        "reference": "Patient/47226799-a"
                    }
                }
            },
            null
        ]
    },
    {
        "resourceType": "Bundle",
        "type": "collection",
        "entry": [
            {
                "resource": {
                    "resourceType": "Patient",
                    "id": "54043a55-2",
                    "name": [
                        {
                            "family": "Sutton",
                            "given": [
                                "Eric",
                                "Sutton"
                            ]
                        }
                    ],
                    "telecom": [
                        {
                            "system": "phone",
                            "value": "(001) 824-7836"
                        }
                    ],
                    "gender": "female",
                    "birthDate": "1944-02-02",
                    "address": [
                        {
                            "line": [
                                " 671 Nash Port"
                            ],
                            "city": "North Shawn",
                            "state": "United States"
                        }
                    ]
                }
            },
            {
                "resource": {
                    "resourceType": "Condition",
                    "id": "I10",
                    "clinicalStatus": {
                        "coding": [
                            {
                                "system": "http://terminology.hl7.org/CodeSystem/condition-clinical",
                                "code": "active"
                            }
                        ]
                    },
                    "code": {
                        "coding": [
                            {
                                "system": "http://hl7.org/fhir/sid/icd-10",
                                "code": "I10",
                                "display": "Essential (primary) hypertension"
                            }
                        ]
                    },
                    "subject": {
                        "reference": "Patient/54043a55-2"
                    }
                }
            },
            {
                "resource": {
                    "resourceType": "Condition",
                    "id": "I20.81",
                    "clinicalStatus": {
                        "coding": [
                            {
                                "system": "http://terminology.hl7.org/CodeSystem/condition-clinical",
                                "code": "inactive"
                            }
                        ]
                    },
                    "code": {
                        "coding": [
                            {
                                "system": "http://hl7.org/fhir/sid/icd-10",
                                "code": "I20.81",
                                "display": "Angina pectoris with coronary microvascular dysfunction"
                            }
                        ]
                    },
                    "subject": {
                        "reference": "Patient/54043a55-2"
                    }
                }
            },
            {
                "resource": {
                    "resourceType": "Condition",
                    "id": "I66.02",
                    "clinicalStatus": {
                        "coding": [
                            {
                                "system": "http://terminology.hl7.org/CodeSystem/condition-clinical",
                                "code": "inactive"
                            }
                        ]
                    },
                    "code": {
                        "coding": [
                            {
                                "system": "http://hl7.org/fhir/sid/icd-10",
                                "code": "I66.02",
                                "display": "Occlusion and stenosis of left middle cerebral artery"
                            }
                        ]
                    },
                    "subject": {
                        "reference": "Patient/54043a55-2"
                    }
                }
            },
            null
        ]
    },
    {
        "resourceType": "Bundle",
        "type": "collection",
        "entry": [
            {
                "resource": {
                    "resourceType": "Patient",
                    "id": "9a2089b8-6",
                    "name": [
                        {
                            "family": "Black",
                            "given": [
                                "Steven",
                                "Black"
                            ]
                        }
                    ],
                    "telecom": [
                        {
                            "system": "phone",
                            "value": "(879) 850-7370"
                        }
                    ],
                    "gender": "female",
                    "birthDate": "1963-02-10",
                    "address": [
                        {
                            "line": [
                                " 602 Foley Underpass"
                            ],
                            "city": "Lake Nathaniel",
                            "state": "United States"
                        }
                    ]
                }
            },
            {
                "resource": {
                    "resourceType": "Condition",
                    "id": "I10",
                    "clinicalStatus": {
                        "coding": [
                            {
                                "system": "http://terminology.hl7.org/CodeSystem/condition-clinical",
                                "code": "active"
                            }
                        ]
                    },
                    "code": {
                        "coding": [
                            {
                                "system": "http://hl7.org/fhir/sid/icd-10",
                                "code": "I10",
                                "display": "Essential (primary) hypertension"
                            }
                        ]
                    },
                    "subject": {
                        "reference": "Patient/9a2089b8-6"
                    }
                }
            },
            null
        ]
    },
    {
        "resourceType": "Bundle",
        "type": "collection",
        "entry": [
            {
                "resource": {
                    "resourceType": "Patient",
                    "id": "d574971a-8",
                    "name": [
                        {
                            "family": "Hart",
                            "given": [
                                "Tyler",
                                "Hart"
                            ]
                        }
                    ],
                    "telecom": [
                        {
                            "system": "phone",
                            "value": "(001) 944-5022"
                        }
                    ],
                    "gender": "female",
                    "birthDate": "1974-11-03",
                    "address": [
                        {
                            "line": [
                                " 783 Cunningham Freeway"
                            ],
                            "city": "Weisstown",
                            "state": "United States"
                        }
                    ]
                }
            },
            {
                "resource": {
                    "resourceType": "Condition",
                    "id": "N39.0",
                    "clinicalStatus": {
                        "coding": [
                            {
                                "system": "http://terminology.hl7.org/CodeSystem/condition-clinical",
                                "code": "active"
                            }
                        ]
                    },
                    "code": {
                        "coding": [
                            {
                                "system": "http://hl7.org/fhir/sid/icd-10",
                                "code": "N39.0",
                                "display": "Urinary tract infection, site not specified"
                            }
                        ]
                    },
                    "subject": {
                        "reference": "Patient/d574971a-8"
                    }
                }
            },
            null
        ]
    },
    {
        "resourceType": "Bundle",
        "type": "collection",
        "entry": [
            {
                "resource": {
                    "resourceType": "Patient",
                    "id": "6dc7afdb-2",
                    "name": [
                        {
                            "family": "Gomez",
                            "given": [
                                "Edward",
                                "Gomez"
                            ]
                        }
                    ],
                    "telecom": [
                        {
                            "system": "phone",
                            "value": "(156) 470-3005"
                        }
                    ],
                    "gender": "female",
                    "birthDate": "2004-12-03",
                    "address": [
                        {
                            "line": [
                                " 48173 Sanders Green"
                            ],
                            "city": "East Coreymouth",
                            "state": "United States"
                        }
                    ]
                }
            },
            {
                "resource": {
                    "resourceType": "Condition",
                    "id": "O14.12",
                    "clinicalStatus": {
                        "coding": [
                            {
                                "system": "http://terminology.hl7.org/CodeSystem/condition-clinical",
                                "code": "active"
                            }
                        ]
                    },
                    "code": {
                        "coding": [
                            {
                                "system": "http://hl7.org/fhir/sid/icd-10",
                                "code": "O14.12",
                                "display": "Severe pre-eclampsia, second trimester"
                            }
                        ]
                    },
                    "subject": {
                        "reference": "Patient/6dc7afdb-2"
                    }
                }
            },
            null
        ]
    },
    {
        "resourceType": "Bundle",
        "type": "collection",
        "entry": [
            {
                "resource": {
                    "resourceType": "Patient",
                    "id": "501ea0aa-6",
                    "name": [
                        {
                            "family": "Baldwin",
                            "given": [
                                "Hunter",
                                "Baldwin"
                            ]
                        }
                    ],
                    "telecom": [
                        {
                            "system": "phone",
                            "value": "(192) 772-6102"
                        }
                    ],
                    "gender": "female",
                    "birthDate": "1968-08-08",
                    "address": [
                        {
                            "line": [
                                " 34626 Guzman Park"
                            ],
                            "city": "Wolfefurt",
                            "state": "United States"
                        }
                    ]
                }
            },
            {
                "resource": {
                    "resourceType": "Condition",
                    "id": "E11.9",
                    "clinicalStatus": {
                        "coding": [
                            {
                                "system": "http://terminology.hl7.org/CodeSystem/condition-clinical",
                                "code": "active"
                            }
                        ]
                    },
                    "code": {
                        "coding": [
                            {
                                "system": "http://hl7.org/fhir/sid/icd-10",
                                "code": "E11.9",
                                "display": "Type 2 diabetes mellitus without complications"
                            }
                        ]
                    },
                    "subject": {
                        "reference": "Patient/501ea0aa-6"
                    }
                }
            },
            {
                "resource": {
                    "resourceType": "Condition",
                    "id": "E02",
                    "clinicalStatus": {
                        "coding": [
                            {
                                "system": "http://terminology.hl7.org/CodeSystem/condition-clinical",
                                "code": "inactive"
                            }
                        ]
                    },
                    "code": {
                        "coding": [
                            {
                                "system": "http://hl7.org/fhir/sid/icd-10",
                                "code": "E02",
                                "display": "Subclinical iodine-deficiency hypothyroidism"
                            }
                        ]
                    },
                    "subject": {
                        "reference": "Patient/501ea0aa-6"
                    }
                }
            },
            {
                "resource": {
                    "resourceType": "Condition",
                    "id": "E79.9",
                    "clinicalStatus": {
                        "coding": [
                            {
                                "system": "http://terminology.hl7.org/CodeSystem/condition-clinical",
                                "code": "inactive"
                            }
                        ]
                    },
                    "code": {
                        "coding": [
                            {
                                "system": "http://hl7.org/fhir/sid/icd-10",
                                "code": "E79.9",
                                "display": "Disorder of purine and pyrimidine metabolism, unspecified"
                            }
                        ]
                    },
                    "subject": {
                        "reference": "Patient/501ea0aa-6"
                    }
                }
            },
            null
        ]
    },
    {
        "resourceType": "Bundle",
        "type": "collection",
        "entry": [
            {
                "resource": {
                    "resourceType": "Patient",
                    "id": "8fcb411f-6",
                    "name": [
                        {
                            "family": "Howard",
                            "given": [
                                "Phillip",
                                "Howard"
                            ]
                        }
                    ],
                    "telecom": [
                        {
                            "system": "phone",
                            "value": "(758) 757-5127"
                        }
                    ],
                    "gender": "male",
                    "birthDate": "1964-12-06",
                    "address": [
                        {
                            "line": [
                                " 0017 Hubbard Junctions"
                            ],
                            "city": "South Chrisside",
                            "state": "United States"
                        }
                    ]
                }
            },
            {
                "resource": {
                    "resourceType": "Condition",
                    "id": "B00.9",
                    "clinicalStatus": {
                        "coding": [
                            {
                                "system": "http://terminology.hl7.org/CodeSystem/condition-clinical",
                                "code": "active"
                            }
                        ]
                    },
                    "code": {
                        "coding": [
                            {
                                "system": "http://hl7.org/fhir/sid/icd-10",
                                "code": "B00.9",
                                "display": "Herpesviral infection, unspecified"
                            }
                        ]
                    },
                    "subject": {
                        "reference": "Patient/8fcb411f-6"
                    }
                }
            },
            null
        ]
    },
    {
        "resourceType": "Bundle",
        "type": "collection",
        "entry": [
            {
                "resource": {
                    "resourceType": "Patient",
                    "id": "75b00b5a-b",
                    "name": [
                        {
                            "family": "Powell",
                            "given": [
                                "Raymond",
                                "Powell"
                            ]
                        }
                    ],
                    "telecom": [
                        {
                            "system": "phone",
                            "value": "(392) 309-2346"
                        }
                    ],
                    "gender": "female",
                    "birthDate": "1964-09-26",
                    "address": [
                        {
                            "line": [
                                " 313 Anthony Motorway"
                            ],
                            "city": "Ianland",
                            "state": "United States"
                        }
                    ]
                }
            },
            {
                "resource": {
                    "resourceType": "Condition",
                    "id": "G81.90",
                    "clinicalStatus": {
                        "coding": [
                            {
                                "system": "http://terminology.hl7.org/CodeSystem/condition-clinical",
                                "code": "active"
                            }
                        ]
                    },
                    "code": {
                        "coding": [
                            {
                                "system": "http://hl7.org/fhir/sid/icd-10",
                                "code": "G81.90",
                                "display": "Hemiplegia, unspecified affecting unspecified side"
                            }
                        ]
                    },
                    "subject": {
                        "reference": "Patient/75b00b5a-b"
                    }
                }
            },
            null
        ]
    },
    {
        "resourceType": "Bundle",
        "type": "collection",
        "entry": [
            {
                "resource": {
                    "resourceType": "Patient",
                    "id": "1b463a5f-0",
                    "name": [
                        {
                            "family": "Anderson",
                            "given": [
                                "Kevin",
                                "Anderson"
                            ]
                        }
                    ],
                    "telecom": [
                        {
                            "system": "phone",
                            "value": "(562) 372-3731"
                        }
                    ],
                    "gender": "female",
                    "birthDate": "1950-11-26",
                    "address": [
                        {
                            "line": [
                                " 81040 Timothy River"
                            ],
                            "city": "Lake Samantha",
                            "state": "United States"
                        }
                    ]
                }
            },
            {
                "resource": {
                    "resourceType": "Condition",
                    "id": "N28.1",
                    "clinicalStatus": {
                        "coding": [
                            {
                                "system": "http://terminology.hl7.org/CodeSystem/condition-clinical",
                                "code": "active"
                            }
                        ]
                    },
                    "code": {
                        "coding": [
                            {
                                "system": "http://hl7.org/fhir/sid/icd-10",
                                "code": "N28.1",
                                "display": "Cyst of kidney, acquired"
                            }
                        ]
                    },
                    "subject": {
                        "reference": "Patient/1b463a5f-0"
                    }
                }
            },
            null
        ]
    },
    {
        "resourceType": "Bundle",
        "type": "collection",
        "entry": [
            {
                "resource": {
                    "resourceType": "Patient",
                    "id": "0821132f-0",
                    "name": [
                        {
                            "family": "Sexton",
                            "given": [
                                "Andrew",
                                "Sexton"
                            ]
                        }
                    ],
                    "telecom": [
                        {
                            "system": "phone",
                            "value": "(318) 215-0245"
                        }
                    ],
                    "gender": "male",
                    "birthDate": "1984-04-08",
                    "address": [
                        {
                            "line": [
                                " 59993 Pollard Mountains"
                            ],
                            "city": "Aprilburgh",
                            "state": "United States"
                        }
                    ]
                }
            },
            {
                "resource": {
                    "resourceType": "Condition",
                    "id": "I10",
                    "clinicalStatus": {
                        "coding": [
                            {
                                "system": "http://terminology.hl7.org/CodeSystem/condition-clinical",
                                "code": "active"
                            }
                        ]
                    },
                    "code": {
                        "coding": [
                            {
                                "system": "http://hl7.org/fhir/sid/icd-10",
                                "code": "I10",
                                "display": "Essential (primary) hypertension"
                            }
                        ]
                    },
                    "subject": {
                        "reference": "Patient/0821132f-0"
                    }
                }
            },
            {
                "resource": {
                    "resourceType": "Condition",
                    "id": "I61.5",
                    "clinicalStatus": {
                        "coding": [
                            {
                                "system": "http://terminology.hl7.org/CodeSystem/condition-clinical",
                                "code": "inactive"
                            }
                        ]
                    },
                    "code": {
                        "coding": [
                            {
                                "system": "http://hl7.org/fhir/sid/icd-10",
                                "code": "I61.5",
                                "display": "Nontraumatic intracerebral hemorrhage, intraventricular"
                            }
                        ]
                    },
                    "subject": {
                        "reference": "Patient/0821132f-0"
                    }
                }
            },
            {
                "resource": {
                    "resourceType": "Condition",
                    "id": "I25.721",
                    "clinicalStatus": {
                        "coding": [
                            {
                                "system": "http://terminology.hl7.org/CodeSystem/condition-clinical",
                                "code": "inactive"
                            }
                        ]
                    },
                    "code": {
                        "coding": [
                            {
                                "system": "http://hl7.org/fhir/sid/icd-10",
                                "code": "I25.721",
                                "display": "Athscl autologous artery CABG w ang pctrs w documented spasm"
                            }
                        ]
                    },
                    "subject": {
                        "reference": "Patient/0821132f-0"
                    }
                }
            },
            null
        ]
    },
    {
        "resourceType": "Bundle",
        "type": "collection",
        "entry": [
            {
                "resource": {
                    "resourceType": "Patient",
                    "id": "cfd7c436-2",
                    "name": [
                        {
                            "family": "Buck",
                            "given": [
                                "Jeremy",
                                "Buck"
                            ]
                        }
                    ],
                    "telecom": [
                        {
                            "system": "phone",
                            "value": "(641) 862-5384"
                        }
                    ],
                    "gender": "female",
                    "birthDate": "1984-02-28",
                    "address": [
                        {
                            "line": [
                                " 73904 Russell Common"
                            ],
                            "city": "Lake Meganborough",
                            "state": "United States"
                        }
                    ]
                }
            },
            {
                "resource": {
                    "resourceType": "Condition",
                    "id": "C92.01",
                    "clinicalStatus": {
                        "coding": [
                            {
                                "system": "http://terminology.hl7.org/CodeSystem/condition-clinical",
                                "code": "active"
                            }
                        ]
                    },
                    "code": {
                        "coding": [
                            {
                                "system": "http://hl7.org/fhir/sid/icd-10",
                                "code": "C92.01",
                                "display": "Acute myeloblastic leukemia, in remission"
                            }
                        ]
                    },
                    "subject": {
                        "reference": "Patient/cfd7c436-2"
                    }
                }
            },
            null
        ]
    },
    {
        "resourceType": "Bundle",
        "type": "collection",
        "entry": [
            {
                "resource": {
                    "resourceType": "Patient",
                    "id": "4c2165bf-5",
                    "name": [
                        {
                            "family": "Sexton",
                            "given": [
                                "Nicholas",
                                "Sexton"
                            ]
                        }
                    ],
                    "telecom": [
                        {
                            "system": "phone",
                            "value": "(795) 352-6025"
                        }
                    ],
                    "gender": "female",
                    "birthDate": "2019-04-16",
                    "address": [
                        {
                            "line": [
                                " 725 Rebecca Estates"
                            ],
                            "city": "Williamsstad",
                            "state": "United States"
                        }
                    ]
                }
            },
            {
                "resource": {
                    "resourceType": "Condition",
                    "id": "I10",
                    "clinicalStatus": {
                        "coding": [
                            {
                                "system": "http://terminology.hl7.org/CodeSystem/condition-clinical",
                                "code": "active"
                            }
                        ]
                    },
                    "code": {
                        "coding": [
                            {
                                "system": "http://hl7.org/fhir/sid/icd-10",
                                "code": "I10",
                                "display": "Essential (primary) hypertension"
                            }
                        ]
                    },
                    "subject": {
                        "reference": "Patient/4c2165bf-5"
                    }
                }
            },
            {
                "resource": {
                    "resourceType": "Condition",
                    "id": "I61.5",
                    "clinicalStatus": {
                        "coding": [
                            {
                                "system": "http://terminology.hl7.org/CodeSystem/condition-clinical",
                                "code": "inactive"
                            }
                        ]
                    },
                    "code": {
                        "coding": [
                            {
                                "system": "http://hl7.org/fhir/sid/icd-10",
                                "code": "I61.5",
                                "display": "Nontraumatic intracerebral hemorrhage, intraventricular"
                            }
                        ]
                    },
                    "subject": {
                        "reference": "Patient/4c2165bf-5"
                    }
                }
            },
            null
        ]
    },
    {
        "resourceType": "Bundle",
        "type": "collection",
        "entry": [
            {
                "resource": {
                    "resourceType": "Patient",
                    "id": "fbefc5b3-0",
                    "name": [
                        {
                            "family": "Richardson",
                            "given": [
                                "Larry",
                                "Richardson"
                            ]
                        }
                    ],
                    "telecom": [
                        {
                            "system": "phone",
                            "value": "(382) 554-8134"
                        }
                    ],
                    "gender": "male",
                    "birthDate": "1983-04-05",
                    "address": [
                        {
                            "line": [
                                " 282 Steve Circles"
                            ],
                            "city": "Careyland",
                            "state": "United States"
                        }
                    ]
                }
            },
            {
                "resource": {
                    "resourceType": "Condition",
                    "id": "C18.6",
                    "clinicalStatus": {
                        "coding": [
                            {
                                "system": "http://terminology.hl7.org/CodeSystem/condition-clinical",
                                "code": "active"
                            }
                        ]
                    },
                    "code": {
                        "coding": [
                            {
                                "system": "http://hl7.org/fhir/sid/icd-10",
                                "code": "C18.6",
                                "display": "Malignant neoplasm of descending colon"
                            }
                        ]
                    },
                    "subject": {
                        "reference": "Patient/fbefc5b3-0"
                    }
                }
            },
            null
        ]
    },
    {
        "resourceType": "Bundle",
        "type": "collection",
        "entry": [
            {
                "resource": {
                    "resourceType": "Patient",
                    "id": "6c5d6d4e-3",
                    "name": [
                        {
                            "family": "Phillips",
                            "given": [
                                "Cody",
                                "Phillips"
                            ]
                        }
                    ],
                    "telecom": [
                        {
                            "system": "phone",
                            "value": "(001) 305-4086"
                        }
                    ],
                    "gender": "male",
                    "birthDate": "1978-04-06",
                    "address": [
                        {
                            "line": [
                                " 9826 Miller Ways"
                            ],
                            "city": "Bonniestad",
                            "state": "United States"
                        }
                    ]
                }
            },
            {
                "resource": {
                    "resourceType": "Condition",
                    "id": "D56.9",
                    "clinicalStatus": {
                        "coding": [
                            {
                                "system": "http://terminology.hl7.org/CodeSystem/condition-clinical",
                                "code": "active"
                            }
                        ]
                    },
                    "code": {
                        "coding": [
                            {
                                "system": "http://hl7.org/fhir/sid/icd-10",
                                "code": "D56.9",
                                "display": "Thalassemia, unspecified"
                            }
                        ]
                    },
                    "subject": {
                        "reference": "Patient/6c5d6d4e-3"
                    }
                }
            },
            null
        ]
    },
    {
        "resourceType": "Bundle",
        "type": "collection",
        "entry": [
            {
                "resource": {
                    "resourceType": "Patient",
                    "id": "5544acf7-9",
                    "name": [
                        {
                            "family": "Evans",
                            "given": [
                                "Joseph",
                                "Evans"
                            ]
                        }
                    ],
                    "telecom": [
                        {
                            "system": "phone",
                            "value": "(321) 870-5802"
                        }
                    ],
                    "gender": "male",
                    "birthDate": "1960-06-16",
                    "address": [
                        {
                            "line": [
                                " 811 Ryan Glens"
                            ],
                            "city": "Port Amandaview",
                            "state": "United States"
                        }
                    ]
                }
            },
            {
                "resource": {
                    "resourceType": "Condition",
                    "id": "H81.11",
                    "clinicalStatus": {
                        "coding": [
                            {
                                "system": "http://terminology.hl7.org/CodeSystem/condition-clinical",
                                "code": "active"
                            }
                        ]
                    },
                    "code": {
                        "coding": [
                            {
                                "system": "http://hl7.org/fhir/sid/icd-10",
                                "code": "H81.11",
                                "display": "Benign paroxysmal vertigo, right ear"
                            }
                        ]
                    },
                    "subject": {
                        "reference": "Patient/5544acf7-9"
                    }
                }
            },
            null
        ]
    },
    {
        "resourceType": "Bundle",
        "type": "collection",
        "entry": [
            {
                "resource": {
                    "resourceType": "Patient",
                    "id": "b7e48235-b",
                    "name": [
                        {
                            "family": "Campbell",
                            "given": [
                                "Martin",
                                "Campbell"
                            ]
                        }
                    ],
                    "telecom": [
                        {
                            "system": "phone",
                            "value": "(909) 366-4611"
                        }
                    ],
                    "gender": "male",
                    "birthDate": "1949-04-26",
                    "address": [
                        {
                            "line": [
                                " 1055 Perez Groves"
                            ],
                            "city": "Joannfurt",
                            "state": "United States"
                        }
                    ]
                }
            },
            {
                "resource": {
                    "resourceType": "Condition",
                    "id": "C50.922",
                    "clinicalStatus": {
                        "coding": [
                            {
                                "system": "http://terminology.hl7.org/CodeSystem/condition-clinical",
                                "code": "active"
                            }
                        ]
                    },
                    "code": {
                        "coding": [
                            {
                                "system": "http://hl7.org/fhir/sid/icd-10",
                                "code": "C50.922",
                                "display": "Malignant neoplasm of unspecified site of left male breast"
                            }
                        ]
                    },
                    "subject": {
                        "reference": "Patient/b7e48235-b"
                    }
                }
            },
            null
        ]
    },
    {
        "resourceType": "Bundle",
        "type": "collection",
        "entry": [
            {
                "resource": {
                    "resourceType": "Patient",
                    "id": "41d43587-c",
                    "name": [
                        {
                            "family": "Rivas",
                            "given": [
                                "Carlos",
                                "Rivas"
                            ]
                        }
                    ],
                    "telecom": [
                        {
                            "system": "phone",
                            "value": "(334) 323-8814"
                        }
                    ],
                    "gender": "female",
                    "birthDate": "1998-12-29",
                    "address": [
                        {
                            "line": [
                                " 309 David Drive"
                            ],
                            "city": "West Duaneberg",
                            "state": "United States"
                        }
                    ]
                }
            },
            {
                "resource": {
                    "resourceType": "Condition",
                    "id": "I48.3",
                    "clinicalStatus": {
                        "coding": [
                            {
                                "system": "http://terminology.hl7.org/CodeSystem/condition-clinical",
                                "code": "active"
                            }
                        ]
                    },
                    "code": {
                        "coding": [
                            {
                                "system": "http://hl7.org/fhir/sid/icd-10",
                                "code": "I48.3",
                                "display": "Typical atrial flutter"
                            }
                        ]
                    },
                    "subject": {
                        "reference": "Patient/41d43587-c"
                    }
                }
            },
            null
        ]
    },
    {
        "resourceType": "Bundle",
        "type": "collection",
        "entry": [
            {
                "resource": {
                    "resourceType": "Patient",
                    "id": "87f8fffc-1",
                    "name": [
                        {
                            "family": "Sanders",
                            "given": [
                                "Greg",
                                "Sanders"
                            ]
                        }
                    ],
                    "telecom": [
                        {
                            "system": "phone",
                            "value": "(548) 299-9844"
                        }
                    ],
                    "gender": "male",
                    "birthDate": "1967-11-07",
                    "address": [
                        {
                            "line": [
                                " 981 Tyler Common"
                            ],
                            "city": "Michaelmouth",
                            "state": "United States"
                        }
                    ]
                }
            },
            {
                "resource": {
                    "resourceType": "Condition",
                    "id": "M32.9",
                    "clinicalStatus": {
                        "coding": [
                            {
                                "system": "http://terminology.hl7.org/CodeSystem/condition-clinical",
                                "code": "active"
                            }
                        ]
                    },
                    "code": {
                        "coding": [
                            {
                                "system": "http://hl7.org/fhir/sid/icd-10",
                                "code": "M32.9",
                                "display": "Systemic lupus erythematosus, unspecified"
                            }
                        ]
                    },
                    "subject": {
                        "reference": "Patient/87f8fffc-1"
                    }
                }
            },
            null
        ]
    },
    {
        "resourceType": "Bundle",
        "type": "collection",
        "entry": [
            {
                "resource": {
                    "resourceType": "Patient",
                    "id": "c67e79a5-e",
                    "name": [
                        {
                            "family": "Burke",
                            "given": [
                                "Noah",
                                "Burke"
                            ]
                        }
                    ],
                    "telecom": [
                        {
                            "system": "phone",
                            "value": "(235) 482-8436"
                        }
                    ],
                    "gender": "female",
                    "birthDate": "1959-03-24",
                    "address": [
                        {
                            "line": [
                                " 35840 Kelly Plaza"
                            ],
                            "city": "North Johnberg",
                            "state": "United States"
                        }
                    ]
                }
            },
            {
                "resource": {
                    "resourceType": "Condition",
                    "id": "J15.7",
                    "clinicalStatus": {
                        "coding": [
                            {
                                "system": "http://terminology.hl7.org/CodeSystem/condition-clinical",
                                "code": "active"
                            }
                        ]
                    },
                    "code": {
                        "coding": [
                            {
                                "system": "http://hl7.org/fhir/sid/icd-10",
                                "code": "J15.7",
                                "display": "Pneumonia due to Mycoplasma pneumoniae"
                            }
                        ]
                    },
                    "subject": {
                        "reference": "Patient/c67e79a5-e"
                    }
                }
            },
            null
        ]
    },
    {
        "resourceType": "Bundle",
        "type": "collection",
        "entry": [
            {
                "resource": {
                    "resourceType": "Patient",
                    "id": "2d680249-b",
                    "name": [
                        {
                            "family": "Foster",
                            "given": [
                                "Sean",
                                "Foster"
                            ]
                        }
                    ],
                    "telecom": [
                        {
                            "system": "phone",
                            "value": "(980) 903-1333"
                        }
                    ],
                    "gender": "male",
                    "birthDate": "2015-05-01",
                    "address": [
                        {
                            "line": [
                                " 61422 Lindsay Branch"
                            ],
                            "city": "West Jenniferland",
                            "state": "United States"
                        }
                    ]
                }
            },
            {
                "resource": {
                    "resourceType": "Condition",
                    "id": "J18.0",
                    "clinicalStatus": {
                        "coding": [
                            {
                                "system": "http://terminology.hl7.org/CodeSystem/condition-clinical",
                                "code": "active"
                            }
                        ]
                    },
                    "code": {
                        "coding": [
                            {
                                "system": "http://hl7.org/fhir/sid/icd-10",
                                "code": "J18.0",
                                "display": "Bronchopneumonia, unspecified organism"
                            }
                        ]
                    },
                    "subject": {
                        "reference": "Patient/2d680249-b"
                    }
                }
            },
            null
        ]
    },
    {
        "resourceType": "Bundle",
        "type": "collection",
        "entry": [
            {
                "resource": {
                    "resourceType": "Patient",
                    "id": "0c2706a2-6",
                    "name": [
                        {
                            "family": "Moore",
                            "given": [
                                "Michael",
                                "Moore"
                            ]
                        }
                    ],
                    "telecom": [
                        {
                            "system": "phone",
                            "value": "(298) 941-5735"
                        }
                    ],
                    "gender": "male",
                    "birthDate": "1944-07-31",
                    "address": [
                        {
                            "line": [
                                " 90181 Moore Forge"
                            ],
                            "city": "Jameschester",
                            "state": "United States"
                        }
                    ]
                }
            },
            {
                "resource": {
                    "resourceType": "Condition",
                    "id": "K62.1",
                    "clinicalStatus": {
                        "coding": [
                            {
                                "system": "http://terminology.hl7.org/CodeSystem/condition-clinical",
                                "code": "active"
                            }
                        ]
                    },
                    "code": {
                        "coding": [
                            {
                                "system": "http://hl7.org/fhir/sid/icd-10",
                                "code": "K62.1",
                                "display": "Rectal polyp"
                            }
                        ]
                    },
                    "subject": {
                        "reference": "Patient/0c2706a2-6"
                    }
                }
            },
            null
        ]
    },
    {
        "resourceType": "Bundle",
        "type": "collection",
        "entry": [
            {
                "resource": {
                    "resourceType": "Patient",
                    "id": "7477080f-c",
                    "name": [
                        {
                            "family": "Nelson",
                            "given": [
                                "Randy",
                                "Nelson"
                            ]
                        }
                    ],
                    "telecom": [
                        {
                            "system": "phone",
                            "value": "(924) 504-7160"
                        }
                    ],
                    "gender": "male",
                    "birthDate": "1954-06-15",
                    "address": [
                        {
                            "line": [
                                " 14769 Jennifer View"
                            ],
                            "city": "Shawnfurt",
                            "state": "United States"
                        }
                    ]
                }
            },
            {
                "resource": {
                    "resourceType": "Condition",
                    "id": "C61",
                    "clinicalStatus": {
                        "coding": [
                            {
                                "system": "http://terminology.hl7.org/CodeSystem/condition-clinical",
                                "code": "active"
                            }
                        ]
                    },
                    "code": {
                        "coding": [
                            {
                                "system": "http://hl7.org/fhir/sid/icd-10",
                                "code": "C61",
                                "display": "Malignant neoplasm of prostate"
                            }
                        ]
                    },
                    "subject": {
                        "reference": "Patient/7477080f-c"
                    }
                }
            },
            null
        ]
    },
    {
        "resourceType": "Bundle",
        "type": "collection",
        "entry": [
            {
                "resource": {
                    "resourceType": "Patient",
                    "id": "1e8310da-7",
                    "name": [
                        {
                            "family": "Villegas",
                            "given": [
                                "Christopher",
                                "Villegas"
                            ]
                        }
                    ],
                    "telecom": [
                        {
                            "system": "phone",
                            "value": "(466) 480-9904"
                        }
                    ],
                    "gender": "male",
                    "birthDate": "1977-08-02",
                    "address": [
                        {
                            "line": [
                                " 183 Michael Row"
                            ],
                            "city": "New Josefort",
                            "state": "United States"
                        }
                    ]
                }
            },
            {
                "resource": {
                    "resourceType": "Condition",
                    "id": "O26.642",
                    "clinicalStatus": {
                        "coding": [
                            {
                                "system": "http://terminology.hl7.org/CodeSystem/condition-clinical",
                                "code": "active"
                            }
                        ]
                    },
                    "code": {
                        "coding": [
                            {
                                "system": "http://hl7.org/fhir/sid/icd-10",
                                "code": "O26.642",
                                "display": "Intrahepatic cholestasis of pregnancy, second trimester"
                            }
                        ]
                    },
                    "subject": {
                        "reference": "Patient/1e8310da-7"
                    }
                }
            },
            null
        ]
    },
    {
        "resourceType": "Bundle",
        "type": "collection",
        "entry": [
            {
                "resource": {
                    "resourceType": "Patient",
                    "id": "3bb5033f-7",
                    "name": [
                        {
                            "family": "Simpson",
                            "given": [
                                "Andrew",
                                "Simpson"
                            ]
                        }
                    ],
                    "telecom": [
                        {
                            "system": "phone",
                            "value": "(997) 377-5160"
                        }
                    ],
                    "gender": "male",
                    "birthDate": "1954-09-15",
                    "address": [
                        {
                            "line": [
                                " 045 Chelsea Glen"
                            ],
                            "city": "Thompsonmouth",
                            "state": "United States"
                        }
                    ]
                }
            },
            {
                "resource": {
                    "resourceType": "Condition",
                    "id": "I10",
                    "clinicalStatus": {
                        "coding": [
                            {
                                "system": "http://terminology.hl7.org/CodeSystem/condition-clinical",
                                "code": "active"
                            }
                        ]
                    },
                    "code": {
                        "coding": [
                            {
                                "system": "http://hl7.org/fhir/sid/icd-10",
                                "code": "I10",
                                "display": "Essential (primary) hypertension"
                            }
                        ]
                    },
                    "subject": {
                        "reference": "Patient/3bb5033f-7"
                    }
                }
            },
            {
                "resource": {
                    "resourceType": "Condition",
                    "id": "I20.81",
                    "clinicalStatus": {
                        "coding": [
                            {
                                "system": "http://terminology.hl7.org/CodeSystem/condition-clinical",
                                "code": "inactive"
                            }
                        ]
                    },
                    "code": {
                        "coding": [
                            {
                                "system": "http://hl7.org/fhir/sid/icd-10",
                                "code": "I20.81",
                                "display": "Angina pectoris with coronary microvascular dysfunction"
                            }
                        ]
                    },
                    "subject": {
                        "reference": "Patient/3bb5033f-7"
                    }
                }
            },
            {
                "resource": {
                    "resourceType": "Condition",
                    "id": "I69.932",
                    "clinicalStatus": {
                        "coding": [
                            {
                                "system": "http://terminology.hl7.org/CodeSystem/condition-clinical",
                                "code": "inactive"
                            }
                        ]
                    },
                    "code": {
                        "coding": [
                            {
                                "system": "http://hl7.org/fhir/sid/icd-10",
                                "code": "I69.932",
                                "display": "Monoplg upr lmb fol unsp cerebvasc disease aff left dom side"
                            }
                        ]
                    },
                    "subject": {
                        "reference": "Patient/3bb5033f-7"
                    }
                }
            },
            null
        ]
    }
]